timestamp,responseTime,trial,targetWord,chosenWord,chosenCategory,chosenPosition,subjID,order,touchscreen,os,test_day,correct
2023-03-01T19:51:22.771Z,5722,1,eye,eye,target,upper-left,1c8ao8Zt,validation - short,FALSE,Mac OS X,2023-03-01,1
2023-03-01T19:51:29.470Z,4238,2,carrot,carrot,target,lower-right,1c8ao8Zt,validation - short,FALSE,Mac OS X,2023-03-01,1
2023-03-01T19:51:37.337Z,6609,3,ant,ant,target,upper-right,1c8ao8Zt,validation - short,FALSE,Mac OS X,2023-03-01,1
2023-03-01T19:51:43.253Z,4067,4,elk,elk,target,upper-left,1c8ao8Zt,validation - short,FALSE,Mac OS X,2023-03-01,1
2023-03-01T19:51:48.153Z,3326,5,choir,choir,target,upper-right,1c8ao8Zt,validation - short,FALSE,Mac OS X,2023-03-01,1
2023-03-01T19:51:52.803Z,2926,6,ventilator,ventilator,target,lower-left,1c8ao8Zt,validation - short,FALSE,Mac OS X,2023-03-01,1
2023-03-01T19:51:57.452Z,3258,7,arugula,dracula,dist2,upper-left,1c8ao8Zt,validation - short,FALSE,Mac OS X,2023-03-01,0
2023-03-01T19:52:01.736Z,2858,8,giraffe,giraffe,target,upper-left,1c8ao8Zt,validation - short,FALSE,Mac OS X,2023-03-01,1
2023-03-01T19:52:05.836Z,2825,9,palmtree,palmtree,target,lower-left,1c8ao8Zt,validation - short,FALSE,Mac OS X,2023-03-01,1
2023-03-01T19:52:09.769Z,2525,10,pineapple,pineapple,target,lower-right,1c8ao8Zt,validation - short,FALSE,Mac OS X,2023-03-01,1
2023-03-01T19:52:15.019Z,3891,11,ocean,ocean,target,upper-left,1c8ao8Zt,validation - short,FALSE,Mac OS X,2023-03-01,1
2023-03-01T19:52:20.036Z,3652,12,gazelle,gazelle,target,lower-right,1c8ao8Zt,validation - short,FALSE,Mac OS X,2023-03-01,1
2023-03-01T19:52:26.303Z,4811,13,chanterelle,chanterelle,target,upper-left,1c8ao8Zt,validation - short,FALSE,Mac OS X,2023-03-01,1
2023-03-01T19:52:31.886Z,4357,14,ruin,ruin,target,lower-right,1c8ao8Zt,validation - short,FALSE,Mac OS X,2023-03-01,1
2023-03-01T19:52:35.587Z,2460,15,labyrinth,labyrinth,target,lower-left,1c8ao8Zt,validation - short,FALSE,Mac OS X,2023-03-01,1
2023-03-01T19:52:40.120Z,3294,16,orchid,orchid,target,lower-left,1c8ao8Zt,validation - short,FALSE,Mac OS X,2023-03-01,1
2023-03-01T19:52:44.202Z,2875,17,zucchini,zucchini,target,upper-right,1c8ao8Zt,validation - short,FALSE,Mac OS X,2023-03-01,1
2023-03-01T19:52:48.104Z,2702,18,kayak,kayak,target,upper-left,1c8ao8Zt,validation - short,FALSE,Mac OS X,2023-03-01,1
2023-03-01T19:52:52.169Z,2555,19,lobster,lobster,target,upper-right,1c8ao8Zt,validation - short,FALSE,Mac OS X,2023-03-01,1
2023-03-01T19:52:59.252Z,5768,20,carnation,violets,dist1,lower-right,1c8ao8Zt,validation - short,FALSE,Mac OS X,2023-03-01,0
2023-03-01T19:53:03.203Z,2643,21,flounder,flounder,target,lower-right,1c8ao8Zt,validation - short,FALSE,Mac OS X,2023-03-01,1
2023-03-01T19:53:17.102Z,12759,22,cello,marshmallow,dist2,upper-right,1c8ao8Zt,validation - short,FALSE,Mac OS X,2023-03-01,0
2023-03-02T12:03:48.338Z,5280,1,eye,eye,target,upper-left,1fabzt9G,validation - short,FALSE,Windows,2023-03-02,1
2023-03-02T12:03:56.113Z,5014,2,carrot,carrot,target,lower-right,1fabzt9G,validation - short,FALSE,Windows,2023-03-02,1
2023-03-02T12:04:01.497Z,3927,3,ant,ant,target,upper-right,1fabzt9G,validation - short,FALSE,Windows,2023-03-02,1
2023-03-02T12:04:13.089Z,10240,4,elk,elk,target,upper-left,1fabzt9G,validation - short,FALSE,Windows,2023-03-02,1
2023-03-02T12:04:32.209Z,17751,5,choir,choir,target,upper-right,1fabzt9G,validation - short,FALSE,Windows,2023-03-02,1
2023-03-02T12:04:43.233Z,6601,6,ventilator,ventilator,target,lower-left,1fabzt9G,validation - short,FALSE,Windows,2023-03-02,1
2023-03-02T12:04:49.849Z,5288,7,arugula,dracula,dist2,upper-left,1fabzt9G,validation - short,FALSE,Windows,2023-03-02,0
2023-03-02T12:04:57.698Z,6480,8,giraffe,giraffe,target,upper-left,1fabzt9G,validation - short,FALSE,Windows,2023-03-02,1
2023-03-02T12:05:02.113Z,3214,9,palmtree,palmtree,target,lower-left,1fabzt9G,validation - short,FALSE,Windows,2023-03-02,1
2023-03-02T12:05:06.098Z,2872,10,pineapple,pineapple,target,lower-right,1fabzt9G,validation - short,FALSE,Windows,2023-03-02,1
2023-03-02T12:05:13.097Z,5934,11,ocean,river,dist1,lower-left,1fabzt9G,validation - short,FALSE,Windows,2023-03-02,0
2023-03-02T12:05:20.673Z,6248,12,gazelle,astronaut,dist3,lower-left,1fabzt9G,validation - short,FALSE,Windows,2023-03-02,0
2023-03-02T12:05:25.929Z,4182,13,chanterelle,butterfly,dist2,lower-left,1fabzt9G,validation - short,FALSE,Windows,2023-03-02,0
2023-03-02T12:05:45.305Z,18200,14,ruin,goalkeeper,dist3,upper-left,1fabzt9G,validation - short,FALSE,Windows,2023-03-02,0
2023-03-02T12:05:52.297Z,6032,15,labyrinth,rollercoaster,dist1,upper-left,1fabzt9G,validation - short,FALSE,Windows,2023-03-02,0
2023-03-02T12:05:59.177Z,5358,16,orchid,banner,dist3,lower-right,1fabzt9G,validation - short,FALSE,Windows,2023-03-02,0
2023-03-02T12:06:06.265Z,5909,17,zucchini,zucchini,target,upper-right,1fabzt9G,validation - short,FALSE,Windows,2023-03-02,1
2023-03-02T12:06:11.889Z,3969,18,kayak,boomerang,dist3,lower-right,1fabzt9G,validation - short,FALSE,Windows,2023-03-02,0
2023-03-02T12:06:17.210Z,4282,19,lobster,microscope,dist3,upper-left,1fabzt9G,validation - short,FALSE,Windows,2023-03-02,0
2023-03-02T12:06:21.889Z,3495,20,carnation,carnation,target,upper-right,1fabzt9G,validation - short,FALSE,Windows,2023-03-02,1
2023-03-02T12:06:35.145Z,11880,21,flounder,pyramid,dist3,upper-right,1fabzt9G,validation - short,FALSE,Windows,2023-03-02,0
2023-03-02T12:06:39.737Z,3313,22,cello,harp,dist1,lower-right,1fabzt9G,validation - short,FALSE,Windows,2023-03-02,0
2023-03-01T18:42:07.640Z,35711,1,eye,eye,target,upper-left,1m11RBXv,validation - short,TRUE,Android,2023-03-01,1
2023-03-01T18:42:17.570Z,6158,2,carrot,carrot,target,lower-right,1m11RBXv,validation - short,TRUE,Android,2023-03-01,1
2023-03-01T18:42:26.454Z,4630,3,ant,ant,target,upper-right,1m11RBXv,validation - short,TRUE,Android,2023-03-01,1
2023-03-01T18:42:33.528Z,4370,4,elk,elk,target,upper-left,1m11RBXv,validation - short,TRUE,Android,2023-03-01,1
2023-03-01T18:42:41.565Z,5241,5,choir,pipe,dist2,upper-left,1m11RBXv,validation - short,TRUE,Android,2023-03-01,0
2023-03-01T18:42:48.783Z,3419,6,ventilator,ventilator,target,lower-left,1m11RBXv,validation - short,TRUE,Android,2023-03-01,1
2023-03-01T18:43:11.371Z,14146,7,arugula,arugula,target,lower-right,1m11RBXv,validation - short,TRUE,Android,2023-03-01,1
2023-03-01T18:43:24.901Z,5174,8,giraffe,giraffe,target,upper-left,1m11RBXv,validation - short,TRUE,Android,2023-03-01,1
2023-03-01T18:43:32.244Z,4344,9,palmtree,palmtree,target,lower-left,1m11RBXv,validation - short,TRUE,Android,2023-03-01,1
2023-03-01T18:43:40.675Z,5898,10,pineapple,pineapple,target,lower-right,1m11RBXv,validation - short,TRUE,Android,2023-03-01,1
2023-03-01T18:44:00.186Z,17631,11,ocean,ocean,target,upper-left,1m11RBXv,validation - short,TRUE,Android,2023-03-01,1
2023-03-01T18:44:20.779Z,15458,12,gazelle,gazelle,target,lower-right,1m11RBXv,validation - short,TRUE,Android,2023-03-01,1
2023-03-01T18:46:09.194Z,105467,13,chanterelle,chanterelle,target,upper-left,1m11RBXv,validation - short,TRUE,Android,2023-03-01,1
2023-03-01T18:46:53.921Z,36686,14,ruin,ruin,target,lower-right,1m11RBXv,validation - short,TRUE,Android,2023-03-01,1
2023-03-01T18:47:06.470Z,8672,15,labyrinth,labyrinth,target,lower-left,1m11RBXv,validation - short,TRUE,Android,2023-03-01,1
2023-03-01T18:48:33.020Z,84369,16,orchid,orchid,target,lower-left,1m11RBXv,validation - short,TRUE,Android,2023-03-01,1
2023-03-01T18:48:48.750Z,7991,17,zucchini,zucchini,target,upper-right,1m11RBXv,validation - short,TRUE,Android,2023-03-01,1
2023-03-01T18:49:02.900Z,7660,18,kayak,kayak,target,upper-left,1m11RBXv,validation - short,TRUE,Android,2023-03-01,1
2023-03-01T18:49:11.616Z,7360,19,lobster,lobster,target,upper-right,1m11RBXv,validation - short,TRUE,Android,2023-03-01,1
2023-03-01T18:49:19.270Z,6597,20,carnation,carnation,target,upper-right,1m11RBXv,validation - short,TRUE,Android,2023-03-01,1
2023-03-01T18:49:29.031Z,7952,21,flounder,flounder,target,lower-right,1m11RBXv,validation - short,TRUE,Android,2023-03-01,1
2023-03-01T18:49:45.525Z,14380,22,cello,cello,target,lower-left,1m11RBXv,validation - short,TRUE,Android,2023-03-01,1
2023-03-03T15:57:27.362Z,4842,1,eye,eye,target,upper-left,1R9NNwNm,validation - short,FALSE,Windows,2023-03-03,1
2023-03-03T15:57:34.262Z,3629,2,carrot,carrot,target,lower-right,1R9NNwNm,validation - short,FALSE,Windows,2023-03-03,1
2023-03-03T15:57:40.717Z,3651,3,ant,ant,target,upper-right,1R9NNwNm,validation - short,FALSE,Windows,2023-03-03,1
2023-03-03T15:57:46.467Z,3857,4,elk,elk,target,upper-left,1R9NNwNm,validation - short,FALSE,Windows,2023-03-03,1
2023-03-03T15:57:51.692Z,3859,5,choir,choir,target,upper-right,1R9NNwNm,validation - short,FALSE,Windows,2023-03-03,1
2023-03-03T15:57:57.124Z,3560,6,ventilator,ventilator,target,lower-left,1R9NNwNm,validation - short,FALSE,Windows,2023-03-03,1
2023-03-03T15:58:03.353Z,4881,7,arugula,dracula,dist2,upper-left,1R9NNwNm,validation - short,FALSE,Windows,2023-03-03,0
2023-03-03T15:58:07.621Z,2790,8,giraffe,giraffe,target,upper-left,1R9NNwNm,validation - short,FALSE,Windows,2023-03-03,1
2023-03-03T15:58:12.937Z,3632,9,palmtree,palmtree,target,lower-left,1R9NNwNm,validation - short,FALSE,Windows,2023-03-03,1
2023-03-03T15:58:17.520Z,3404,10,pineapple,pineapple,target,lower-right,1R9NNwNm,validation - short,FALSE,Windows,2023-03-03,1
2023-03-03T15:58:24.663Z,5344,11,ocean,ocean,target,upper-left,1R9NNwNm,validation - short,FALSE,Windows,2023-03-03,1
2023-03-03T15:58:33.264Z,7249,12,gazelle,gazelle,target,lower-right,1R9NNwNm,validation - short,FALSE,Windows,2023-03-03,1
2023-03-03T15:58:40.556Z,5314,13,chanterelle,chanterelle,target,upper-left,1R9NNwNm,validation - short,FALSE,Windows,2023-03-03,1
2023-03-03T15:58:48.778Z,5292,14,ruin,ruin,target,lower-right,1R9NNwNm,validation - short,FALSE,Windows,2023-03-03,1
2023-03-03T15:58:56.094Z,4448,15,labyrinth,labyrinth,target,lower-left,1R9NNwNm,validation - short,FALSE,Windows,2023-03-03,1
2023-03-03T15:59:04.557Z,6841,16,orchid,orchid,target,lower-left,1R9NNwNm,validation - short,FALSE,Windows,2023-03-03,1
2023-03-03T15:59:09.670Z,3716,17,zucchini,zucchini,target,upper-right,1R9NNwNm,validation - short,FALSE,Windows,2023-03-03,1
2023-03-03T15:59:14.837Z,3625,18,kayak,kayak,target,upper-left,1R9NNwNm,validation - short,FALSE,Windows,2023-03-03,1
2023-03-03T15:59:18.618Z,2670,19,lobster,lobster,target,upper-right,1R9NNwNm,validation - short,FALSE,Windows,2023-03-03,1
2023-03-03T15:59:24.034Z,4170,20,carnation,violets,dist1,lower-right,1R9NNwNm,validation - short,FALSE,Windows,2023-03-03,0
2023-03-03T15:59:31.012Z,5696,21,flounder,flounder,target,lower-right,1R9NNwNm,validation - short,FALSE,Windows,2023-03-03,1
2023-03-03T15:59:35.725Z,2972,22,cello,harp,dist1,lower-right,1R9NNwNm,validation - short,FALSE,Windows,2023-03-03,0
2023-03-04T12:21:17.179Z,4426,1,eye,eye,target,upper-left,1ucfbeiZ,validation - short,FALSE,Windows,2023-03-04,1
2023-03-04T12:21:26.471Z,6467,2,carrot,carrot,target,lower-right,1ucfbeiZ,validation - short,FALSE,Windows,2023-03-04,1
2023-03-04T12:21:32.175Z,3841,3,ant,ant,target,upper-right,1ucfbeiZ,validation - short,FALSE,Windows,2023-03-04,1
2023-03-04T12:21:50.375Z,12056,4,elk,elk,target,upper-left,1ucfbeiZ,validation - short,FALSE,Windows,2023-03-04,1
2023-03-04T12:22:05.501Z,8373,5,choir,choir,target,upper-right,1ucfbeiZ,validation - short,FALSE,Windows,2023-03-04,1
2023-03-04T12:22:21.169Z,5125,6,ventilator,ventilator,target,lower-left,1ucfbeiZ,validation - short,FALSE,Windows,2023-03-04,1
2023-03-04T12:22:36.076Z,9442,7,arugula,arugula,target,lower-right,1ucfbeiZ,validation - short,FALSE,Windows,2023-03-04,1
2023-03-04T12:22:49.608Z,8117,8,giraffe,giraffe,target,upper-left,1ucfbeiZ,validation - short,FALSE,Windows,2023-03-04,1
2023-03-04T12:23:01.606Z,5818,9,palmtree,palmtree,target,lower-left,1ucfbeiZ,validation - short,FALSE,Windows,2023-03-04,1
2023-03-04T12:23:12.416Z,5759,10,pineapple,pineapple,target,lower-right,1ucfbeiZ,validation - short,FALSE,Windows,2023-03-04,1
2023-03-04T12:23:26.261Z,7599,11,ocean,ocean,target,upper-left,1ucfbeiZ,validation - short,FALSE,Windows,2023-03-04,1
2023-03-04T12:24:06.266Z,32809,12,gazelle,gazelle,target,lower-right,1ucfbeiZ,validation - short,FALSE,Windows,2023-03-04,1
2023-03-04T12:24:23.827Z,13303,13,chanterelle,chanterelle,target,upper-left,1ucfbeiZ,validation - short,FALSE,Windows,2023-03-04,1
2023-03-04T12:24:35.969Z,7107,14,ruin,ruin,target,lower-right,1ucfbeiZ,validation - short,FALSE,Windows,2023-03-04,1
2023-03-04T12:24:51.717Z,7666,15,labyrinth,labyrinth,target,lower-left,1ucfbeiZ,validation - short,FALSE,Windows,2023-03-04,1
2023-03-04T12:25:13.039Z,16674,16,orchid,orchid,target,lower-left,1ucfbeiZ,validation - short,FALSE,Windows,2023-03-04,1
2023-03-04T12:25:24.288Z,7289,17,zucchini,zucchini,target,upper-right,1ucfbeiZ,validation - short,FALSE,Windows,2023-03-04,1
2023-03-04T12:25:41.381Z,7531,18,kayak,kayak,target,upper-left,1ucfbeiZ,validation - short,FALSE,Windows,2023-03-04,1
2023-03-04T12:25:52.174Z,6311,19,lobster,lobster,target,upper-right,1ucfbeiZ,validation - short,FALSE,Windows,2023-03-04,1
2023-03-04T12:26:10.922Z,14863,20,carnation,violets,dist1,lower-right,1ucfbeiZ,validation - short,FALSE,Windows,2023-03-04,0
2023-03-04T12:26:43.408Z,27255,21,flounder,flounder,target,lower-right,1ucfbeiZ,validation - short,FALSE,Windows,2023-03-04,1
2023-03-04T12:26:51.687Z,3733,22,cello,cello,target,lower-left,1ucfbeiZ,validation - short,FALSE,Windows,2023-03-04,1
2023-03-04T08:49:21.778Z,3900,1,eye,eye,target,upper-left,1XKPmPrA,validation - short,FALSE,Windows,2023-03-04,1
2023-03-04T08:49:26.150Z,3047,2,carrot,carrot,target,lower-right,1XKPmPrA,validation - short,FALSE,Windows,2023-03-04,1
2023-03-04T08:49:30.034Z,3139,3,ant,ant,target,upper-right,1XKPmPrA,validation - short,FALSE,Windows,2023-03-04,1
2023-03-04T08:49:35.072Z,4226,4,elk,elk,target,upper-left,1XKPmPrA,validation - short,FALSE,Windows,2023-03-04,1
2023-03-04T08:49:40.616Z,4570,5,choir,choir,target,upper-right,1XKPmPrA,validation - short,FALSE,Windows,2023-03-04,1
2023-03-04T08:49:44.270Z,2707,6,ventilator,ventilator,target,lower-left,1XKPmPrA,validation - short,FALSE,Windows,2023-03-04,1
2023-03-04T08:49:51.975Z,6946,7,arugula,dracula,dist2,upper-left,1XKPmPrA,validation - short,FALSE,Windows,2023-03-04,0
2023-03-04T08:50:01.759Z,2117,8,giraffe,giraffe,target,upper-left,1XKPmPrA,validation - short,FALSE,Windows,2023-03-04,1
2023-03-04T08:50:04.833Z,2242,9,palmtree,palmtree,target,lower-left,1XKPmPrA,validation - short,FALSE,Windows,2023-03-04,1
2023-03-04T08:50:07.343Z,1755,10,pineapple,pineapple,target,lower-right,1XKPmPrA,validation - short,FALSE,Windows,2023-03-04,1
2023-03-04T08:50:13.987Z,5896,11,ocean,ocean,target,upper-left,1XKPmPrA,validation - short,FALSE,Windows,2023-03-04,1
2023-03-04T08:50:33.523Z,18609,12,gazelle,gazelle,target,lower-right,1XKPmPrA,validation - short,FALSE,Windows,2023-03-04,1
2023-03-04T08:50:40.413Z,4671,13,chanterelle,chanterelle,target,upper-left,1XKPmPrA,validation - short,FALSE,Windows,2023-03-04,1
2023-03-04T08:50:50.231Z,9055,14,ruin,ruin,target,lower-right,1XKPmPrA,validation - short,FALSE,Windows,2023-03-04,1
2023-03-04T08:50:53.071Z,2012,15,labyrinth,labyrinth,target,lower-left,1XKPmPrA,validation - short,FALSE,Windows,2023-03-04,1
2023-03-04T08:51:02.959Z,9146,16,orchid,orchid,target,lower-left,1XKPmPrA,validation - short,FALSE,Windows,2023-03-04,1
2023-03-04T08:51:06.551Z,2419,17,zucchini,zucchini,target,upper-right,1XKPmPrA,validation - short,FALSE,Windows,2023-03-04,1
2023-03-04T08:51:12.977Z,5611,18,kayak,kayak,target,upper-left,1XKPmPrA,validation - short,FALSE,Windows,2023-03-04,1
2023-03-04T08:51:20.059Z,6108,19,lobster,lobster,target,upper-right,1XKPmPrA,validation - short,FALSE,Windows,2023-03-04,1
2023-03-04T08:51:26.833Z,5933,20,carnation,carnation,target,upper-right,1XKPmPrA,validation - short,FALSE,Windows,2023-03-04,1
2023-03-04T08:51:34.095Z,6545,21,flounder,flounder,target,lower-right,1XKPmPrA,validation - short,FALSE,Windows,2023-03-04,1
2023-03-04T08:51:47.821Z,12921,22,cello,cello,target,lower-left,1XKPmPrA,validation - short,FALSE,Windows,2023-03-04,1
2023-03-02T17:03:55.539Z,5340,1,eye,eye,target,upper-left,2EzEKVq4,validation - short,TRUE,Windows,2023-03-02,1
2023-03-02T17:04:03.444Z,3357,2,carrot,carrot,target,lower-right,2EzEKVq4,validation - short,TRUE,Windows,2023-03-02,1
2023-03-02T17:04:07.597Z,2419,3,ant,ant,target,upper-right,2EzEKVq4,validation - short,TRUE,Windows,2023-03-02,1
2023-03-02T17:04:13.220Z,3593,4,elk,elk,target,upper-left,2EzEKVq4,validation - short,TRUE,Windows,2023-03-02,1
2023-03-02T17:04:18.730Z,3695,5,choir,orchestra,dist1,lower-right,2EzEKVq4,validation - short,TRUE,Windows,2023-03-02,0
2023-03-02T17:04:23.589Z,2189,6,ventilator,ventilator,target,lower-left,2EzEKVq4,validation - short,TRUE,Windows,2023-03-02,1
2023-03-02T17:04:27.317Z,2217,7,arugula,dracula,dist2,upper-left,2EzEKVq4,validation - short,TRUE,Windows,2023-03-02,0
2023-03-02T17:04:58.804Z,1925,8,giraffe,giraffe,target,upper-left,2EzEKVq4,validation - short,TRUE,Windows,2023-03-02,1
2023-03-02T17:05:04.414Z,3929,9,palmtree,palmtree,target,lower-left,2EzEKVq4,validation - short,TRUE,Windows,2023-03-02,1
2023-03-02T17:05:09.273Z,2098,10,pineapple,pineapple,target,lower-right,2EzEKVq4,validation - short,TRUE,Windows,2023-03-02,1
2023-03-02T17:05:14.027Z,2998,11,ocean,ocean,target,upper-left,2EzEKVq4,validation - short,TRUE,Windows,2023-03-02,1
2023-03-02T17:05:23.946Z,8465,12,gazelle,dragonfly,dist2,upper-left,2EzEKVq4,validation - short,TRUE,Windows,2023-03-02,0
2023-03-02T17:05:43.747Z,17755,13,chanterelle,chanterelle,target,upper-left,2EzEKVq4,validation - short,TRUE,Windows,2023-03-02,1
2023-03-02T17:05:57.792Z,4511,14,ruin,ruin,target,lower-right,2EzEKVq4,validation - short,TRUE,Windows,2023-03-02,1
2023-03-02T17:06:05.396Z,2727,15,labyrinth,labyrinth,target,lower-left,2EzEKVq4,validation - short,TRUE,Windows,2023-03-02,1
2023-03-02T17:06:15.993Z,8679,16,orchid,orchid,target,lower-left,2EzEKVq4,validation - short,TRUE,Windows,2023-03-02,1
2023-03-02T17:06:31.287Z,3194,17,zucchini,zucchini,target,upper-right,2EzEKVq4,validation - short,TRUE,Windows,2023-03-02,1
2023-03-02T17:06:37.522Z,4788,18,kayak,kayak,target,upper-left,2EzEKVq4,validation - short,TRUE,Windows,2023-03-02,1
2023-03-02T17:06:42.526Z,2881,19,lobster,lobster,target,upper-right,2EzEKVq4,validation - short,TRUE,Windows,2023-03-02,1
2023-03-02T17:06:53.950Z,10067,20,carnation,carnation,target,upper-right,2EzEKVq4,validation - short,TRUE,Windows,2023-03-02,1
2023-03-02T17:07:01.488Z,4741,21,flounder,flounder,target,lower-right,2EzEKVq4,validation - short,TRUE,Windows,2023-03-02,1
2023-03-02T17:07:09.431Z,6063,22,cello,landingbridge,dist3,upper-left,2EzEKVq4,validation - short,TRUE,Windows,2023-03-02,0
2023-03-04T14:41:04.378Z,3186,1,eye,eye,target,upper-left,2koAfb5r,validation - short,TRUE,Windows,2023-03-04,1
2023-03-04T14:41:12.492Z,3184,2,carrot,carrot,target,lower-right,2koAfb5r,validation - short,TRUE,Windows,2023-03-04,1
2023-03-04T14:41:17.776Z,2515,3,ant,ant,target,upper-right,2koAfb5r,validation - short,TRUE,Windows,2023-03-04,1
2023-03-04T14:41:24.754Z,3421,4,elk,elk,target,upper-left,2koAfb5r,validation - short,TRUE,Windows,2023-03-04,1
2023-03-04T14:41:32.817Z,5484,5,choir,choir,target,upper-right,2koAfb5r,validation - short,TRUE,Windows,2023-03-04,1
2023-03-04T14:41:37.831Z,2799,6,ventilator,ventilator,target,lower-left,2koAfb5r,validation - short,TRUE,Windows,2023-03-04,1
2023-03-04T14:41:43.212Z,2949,7,arugula,arugula,target,lower-right,2koAfb5r,validation - short,TRUE,Windows,2023-03-04,1
2023-03-04T14:41:47.762Z,2667,8,giraffe,giraffe,target,upper-left,2koAfb5r,validation - short,TRUE,Windows,2023-03-04,1
2023-03-04T14:41:52.748Z,2820,9,palmtree,palmtree,target,lower-left,2koAfb5r,validation - short,TRUE,Windows,2023-03-04,1
2023-03-04T14:41:56.426Z,2085,10,pineapple,pineapple,target,lower-right,2koAfb5r,validation - short,TRUE,Windows,2023-03-04,1
2023-03-04T14:42:02.132Z,3911,11,ocean,ocean,target,upper-left,2koAfb5r,validation - short,TRUE,Windows,2023-03-04,1
2023-03-04T14:42:08.731Z,4622,12,gazelle,gazelle,target,lower-right,2koAfb5r,validation - short,TRUE,Windows,2023-03-04,1
2023-03-04T14:42:14.357Z,4204,13,chanterelle,chanterelle,target,upper-left,2koAfb5r,validation - short,TRUE,Windows,2023-03-04,1
2023-03-04T14:42:19.149Z,2934,14,ruin,ruin,target,lower-right,2koAfb5r,validation - short,TRUE,Windows,2023-03-04,1
2023-03-04T14:42:23.513Z,2613,15,labyrinth,labyrinth,target,lower-left,2koAfb5r,validation - short,TRUE,Windows,2023-03-04,1
2023-03-04T14:42:33.530Z,8372,16,orchid,orchid,target,lower-left,2koAfb5r,validation - short,TRUE,Windows,2023-03-04,1
2023-03-04T14:42:38.359Z,2987,17,zucchini,zucchini,target,upper-right,2koAfb5r,validation - short,TRUE,Windows,2023-03-04,1
2023-03-04T14:42:43.462Z,2321,18,kayak,kayak,target,upper-left,2koAfb5r,validation - short,TRUE,Windows,2023-03-04,1
2023-03-04T14:42:49.230Z,2505,19,lobster,lobster,target,upper-right,2koAfb5r,validation - short,TRUE,Windows,2023-03-04,1
2023-03-04T14:42:59.941Z,7467,20,carnation,violets,dist1,lower-right,2koAfb5r,validation - short,TRUE,Windows,2023-03-04,0
2023-03-04T14:43:04.288Z,2415,21,flounder,flounder,target,lower-right,2koAfb5r,validation - short,TRUE,Windows,2023-03-04,1
2023-03-04T14:43:13.572Z,7532,22,cello,cello,target,lower-left,2koAfb5r,validation - short,TRUE,Windows,2023-03-04,1
2023-03-02T15:41:11.330Z,5593,1,eye,eye,target,upper-left,2NzP5Sr9,validation - short,FALSE,Windows,2023-03-02,1
2023-03-02T15:41:20.810Z,4342,2,carrot,carrot,target,lower-right,2NzP5Sr9,validation - short,FALSE,Windows,2023-03-02,1
2023-03-02T15:41:27.992Z,4497,3,ant,ant,target,upper-right,2NzP5Sr9,validation - short,FALSE,Windows,2023-03-02,1
2023-03-02T15:41:35.847Z,4752,4,elk,elk,target,upper-left,2NzP5Sr9,validation - short,FALSE,Windows,2023-03-02,1
2023-03-02T15:41:46.216Z,6083,5,choir,choir,target,upper-right,2NzP5Sr9,validation - short,FALSE,Windows,2023-03-02,1
2023-03-02T15:41:52.801Z,3254,6,ventilator,ventilator,target,lower-left,2NzP5Sr9,validation - short,FALSE,Windows,2023-03-02,1
2023-03-02T15:42:26.785Z,31200,7,arugula,arugula,target,lower-right,2NzP5Sr9,validation - short,FALSE,Windows,2023-03-02,1
2023-03-02T15:42:33.233Z,3749,8,giraffe,giraffe,target,upper-left,2NzP5Sr9,validation - short,FALSE,Windows,2023-03-02,1
2023-03-02T15:42:38.098Z,2102,9,palmtree,palmtree,target,lower-left,2NzP5Sr9,validation - short,FALSE,Windows,2023-03-02,1
2023-03-02T15:42:42.996Z,2973,10,pineapple,pineapple,target,lower-right,2NzP5Sr9,validation - short,FALSE,Windows,2023-03-02,1
2023-03-02T15:42:55.730Z,10428,11,ocean,ocean,target,upper-left,2NzP5Sr9,validation - short,FALSE,Windows,2023-03-02,1
2023-03-02T15:43:07.734Z,7891,12,gazelle,gazelle,target,lower-right,2NzP5Sr9,validation - short,FALSE,Windows,2023-03-02,1
2023-03-02T15:43:15.074Z,4280,13,chanterelle,chanterelle,target,upper-left,2NzP5Sr9,validation - short,FALSE,Windows,2023-03-02,1
2023-03-02T15:43:24.031Z,5541,14,ruin,ruin,target,lower-right,2NzP5Sr9,validation - short,FALSE,Windows,2023-03-02,1
2023-03-02T15:43:29.205Z,2644,15,labyrinth,labyrinth,target,lower-left,2NzP5Sr9,validation - short,FALSE,Windows,2023-03-02,1
2023-03-02T15:43:34.070Z,2576,16,orchid,orchid,target,lower-left,2NzP5Sr9,validation - short,FALSE,Windows,2023-03-02,1
2023-03-02T15:43:39.998Z,3815,17,zucchini,zucchini,target,upper-right,2NzP5Sr9,validation - short,FALSE,Windows,2023-03-02,1
2023-03-02T15:43:48.088Z,4910,18,kayak,kayak,target,upper-left,2NzP5Sr9,validation - short,FALSE,Windows,2023-03-02,1
2023-03-02T15:44:01.483Z,10353,19,lobster,lobster,target,upper-right,2NzP5Sr9,validation - short,FALSE,Windows,2023-03-02,1
2023-03-02T15:44:18.951Z,14990,20,carnation,violets,dist1,lower-right,2NzP5Sr9,validation - short,FALSE,Windows,2023-03-02,0
2023-03-02T15:44:30.006Z,8357,21,flounder,elderberry,dist2,upper-left,2NzP5Sr9,validation - short,FALSE,Windows,2023-03-02,0
2023-03-02T15:44:37.776Z,4063,22,cello,harp,dist1,lower-right,2NzP5Sr9,validation - short,FALSE,Windows,2023-03-02,0
2023-03-02T18:33:24.481Z,3940,1,eye,eye,target,upper-left,36DwPbmB,validation - short,TRUE,iOS,2023-03-02,1
2023-03-02T18:33:33.220Z,4548,2,carrot,carrot,target,lower-right,36DwPbmB,validation - short,TRUE,iOS,2023-03-02,1
2023-03-02T18:33:40.346Z,3874,3,ant,ant,target,upper-right,36DwPbmB,validation - short,TRUE,iOS,2023-03-02,1
2023-03-02T18:33:46.152Z,4814,4,elk,elk,target,upper-left,36DwPbmB,validation - short,TRUE,iOS,2023-03-02,1
2023-03-02T18:34:13.510Z,26317,5,choir,orchestra,dist1,lower-right,36DwPbmB,validation - short,TRUE,iOS,2023-03-02,0
2023-03-02T18:34:17.676Z,3276,6,ventilator,ventilator,target,lower-left,36DwPbmB,validation - short,TRUE,iOS,2023-03-02,1
2023-03-02T18:34:26.602Z,7815,7,arugula,brusselsprouts,dist1,lower-left,36DwPbmB,validation - short,TRUE,iOS,2023-03-02,0
2023-03-02T18:34:30.875Z,3013,8,giraffe,giraffe,target,upper-left,36DwPbmB,validation - short,TRUE,iOS,2023-03-02,1
2023-03-02T18:34:34.647Z,2656,9,palmtree,palmtree,target,lower-left,36DwPbmB,validation - short,TRUE,iOS,2023-03-02,1
2023-03-02T18:34:38.393Z,2536,10,pineapple,pineapple,target,lower-right,36DwPbmB,validation - short,TRUE,iOS,2023-03-02,1
2023-03-02T18:34:45.452Z,5714,11,ocean,ocean,target,upper-left,36DwPbmB,validation - short,TRUE,iOS,2023-03-02,1
2023-03-02T18:34:51.008Z,4371,12,gazelle,gazelle,target,lower-right,36DwPbmB,validation - short,TRUE,iOS,2023-03-02,1
2023-03-02T18:35:02.779Z,10619,13,chanterelle,chanterelle,target,upper-left,36DwPbmB,validation - short,TRUE,iOS,2023-03-02,1
2023-03-02T18:35:09.106Z,5247,14,ruin,ruin,target,lower-right,36DwPbmB,validation - short,TRUE,iOS,2023-03-02,1
2023-03-02T18:35:13.043Z,2982,15,labyrinth,labyrinth,target,lower-left,36DwPbmB,validation - short,TRUE,iOS,2023-03-02,1
2023-03-02T18:35:19.146Z,5229,16,orchid,orchid,target,lower-left,36DwPbmB,validation - short,TRUE,iOS,2023-03-02,1
2023-03-02T18:35:22.973Z,3006,17,zucchini,zucchini,target,upper-right,36DwPbmB,validation - short,TRUE,iOS,2023-03-02,1
2023-03-02T18:35:32.118Z,7923,18,kayak,sailingboat,dist1,lower-left,36DwPbmB,validation - short,TRUE,iOS,2023-03-02,0
2023-03-02T18:35:38.889Z,5683,19,lobster,microscope,dist3,upper-left,36DwPbmB,validation - short,TRUE,iOS,2023-03-02,0
2023-03-02T18:35:44.257Z,4061,20,carnation,carnation,target,upper-right,36DwPbmB,validation - short,TRUE,iOS,2023-03-02,1
2023-03-02T18:35:51.845Z,6303,21,flounder,elderberry,dist2,upper-left,36DwPbmB,validation - short,TRUE,iOS,2023-03-02,0
2023-03-02T18:35:55.522Z,2420,22,cello,cello,target,lower-left,36DwPbmB,validation - short,TRUE,iOS,2023-03-02,1
2023-03-03T17:48:45.215Z,6475,1,eye,eye,target,upper-left,3J3CDH1e,validation - short,TRUE,Android,2023-03-03,1
2023-03-03T17:48:53.225Z,5859,2,carrot,carrot,target,lower-right,3J3CDH1e,validation - short,TRUE,Android,2023-03-03,1
2023-03-03T17:49:05.885Z,6211,3,ant,ant,target,upper-right,3J3CDH1e,validation - short,TRUE,Android,2023-03-03,1
2023-03-03T17:49:15.006Z,5840,4,elk,elk,target,upper-left,3J3CDH1e,validation - short,TRUE,Android,2023-03-03,1
2023-03-03T17:49:22.982Z,6268,5,choir,choir,target,upper-right,3J3CDH1e,validation - short,TRUE,Android,2023-03-03,1
2023-03-03T17:49:29.293Z,4780,6,ventilator,ventilator,target,lower-left,3J3CDH1e,validation - short,TRUE,Android,2023-03-03,1
2023-03-03T17:49:36.568Z,4066,7,arugula,brusselsprouts,dist1,lower-left,3J3CDH1e,validation - short,TRUE,Android,2023-03-03,0
2023-03-03T17:49:42.170Z,2569,8,giraffe,giraffe,target,upper-left,3J3CDH1e,validation - short,TRUE,Android,2023-03-03,1
2023-03-03T17:49:45.714Z,2566,9,palmtree,palmtree,target,lower-left,3J3CDH1e,validation - short,TRUE,Android,2023-03-03,1
2023-03-03T17:49:49.309Z,2459,10,pineapple,pineapple,target,lower-right,3J3CDH1e,validation - short,TRUE,Android,2023-03-03,1
2023-03-03T17:49:55.828Z,4002,11,ocean,ocean,target,upper-left,3J3CDH1e,validation - short,TRUE,Android,2023-03-03,1
2023-03-03T17:50:10.143Z,7989,12,gazelle,gazelle,target,lower-right,3J3CDH1e,validation - short,TRUE,Android,2023-03-03,1
2023-03-03T17:50:17.968Z,3237,13,chanterelle,chanterelle,target,upper-left,3J3CDH1e,validation - short,TRUE,Android,2023-03-03,1
2023-03-03T17:50:25.459Z,5209,14,ruin,ruin,target,lower-right,3J3CDH1e,validation - short,TRUE,Android,2023-03-03,1
2023-03-03T17:50:36.266Z,2516,15,labyrinth,labyrinth,target,lower-left,3J3CDH1e,validation - short,TRUE,Android,2023-03-03,1
2023-03-03T17:50:41.016Z,3057,16,orchid,orchid,target,lower-left,3J3CDH1e,validation - short,TRUE,Android,2023-03-03,1
2023-03-03T17:50:47.116Z,3954,17,zucchini,zucchini,target,upper-right,3J3CDH1e,validation - short,TRUE,Android,2023-03-03,1
2023-03-03T17:50:52.112Z,3573,18,kayak,kayak,target,upper-left,3J3CDH1e,validation - short,TRUE,Android,2023-03-03,1
2023-03-03T17:50:58.577Z,2447,19,lobster,lobster,target,upper-right,3J3CDH1e,validation - short,TRUE,Android,2023-03-03,1
2023-03-03T17:51:02.515Z,2709,20,carnation,violets,dist1,lower-right,3J3CDH1e,validation - short,TRUE,Android,2023-03-03,0
2023-03-03T17:51:07.386Z,2199,21,flounder,flounder,target,lower-right,3J3CDH1e,validation - short,TRUE,Android,2023-03-03,1
2023-03-03T17:51:17.900Z,8104,22,cello,harp,dist1,lower-right,3J3CDH1e,validation - short,TRUE,Android,2023-03-03,0
2023-03-05T13:28:51.181Z,3197,1,eye,eye,target,upper-left,3pMFWfyz,validation - short,TRUE,Windows,2023-03-05,1
2023-03-05T13:28:58.355Z,3262,2,carrot,carrot,target,lower-right,3pMFWfyz,validation - short,TRUE,Windows,2023-03-05,1
2023-03-05T13:29:02.420Z,2909,3,ant,ant,target,upper-right,3pMFWfyz,validation - short,TRUE,Windows,2023-03-05,1
2023-03-05T13:29:14.959Z,10985,4,elk,elk,target,upper-left,3pMFWfyz,validation - short,TRUE,Windows,2023-03-05,1
2023-03-05T13:29:22.559Z,6105,5,choir,pipe,dist2,upper-left,3pMFWfyz,validation - short,TRUE,Windows,2023-03-05,0
2023-03-05T13:29:26.521Z,2629,6,ventilator,ventilator,target,lower-left,3pMFWfyz,validation - short,TRUE,Windows,2023-03-05,1
2023-03-05T13:29:32.768Z,4997,7,arugula,arugula,target,lower-right,3pMFWfyz,validation - short,TRUE,Windows,2023-03-05,1
2023-03-05T13:29:36.337Z,2384,8,giraffe,giraffe,target,upper-left,3pMFWfyz,validation - short,TRUE,Windows,2023-03-05,1
2023-03-05T13:29:40.607Z,2941,9,palmtree,palmtree,target,lower-left,3pMFWfyz,validation - short,TRUE,Windows,2023-03-05,1
2023-03-05T13:29:44.174Z,2301,10,pineapple,pineapple,target,lower-right,3pMFWfyz,validation - short,TRUE,Windows,2023-03-05,1
2023-03-05T13:29:49.589Z,4048,11,ocean,ocean,target,upper-left,3pMFWfyz,validation - short,TRUE,Windows,2023-03-05,1
2023-03-05T13:29:56.790Z,5901,12,gazelle,gazelle,target,lower-right,3pMFWfyz,validation - short,TRUE,Windows,2023-03-05,1
2023-03-05T13:30:04.494Z,6455,13,chanterelle,butterfly,dist2,lower-left,3pMFWfyz,validation - short,TRUE,Windows,2023-03-05,0
2023-03-05T13:30:17.858Z,11993,14,ruin,ruin,target,lower-right,3pMFWfyz,validation - short,TRUE,Windows,2023-03-05,1
2023-03-05T13:30:23.474Z,4293,15,labyrinth,labyrinth,target,lower-left,3pMFWfyz,validation - short,TRUE,Windows,2023-03-05,1
2023-03-05T13:30:33.974Z,9204,16,orchid,banner,dist3,lower-right,3pMFWfyz,validation - short,TRUE,Windows,2023-03-05,0
2023-03-05T13:30:40.462Z,5399,17,zucchini,zucchini,target,upper-right,3pMFWfyz,validation - short,TRUE,Windows,2023-03-05,1
2023-03-05T13:30:47.816Z,5915,18,kayak,boomerang,dist3,lower-right,3pMFWfyz,validation - short,TRUE,Windows,2023-03-05,0
2023-03-05T13:30:57.485Z,8492,19,lobster,lobster,target,upper-right,3pMFWfyz,validation - short,TRUE,Windows,2023-03-05,1
2023-03-05T13:31:13.712Z,15154,20,carnation,compass,dist3,upper-left,3pMFWfyz,validation - short,TRUE,Windows,2023-03-05,0
2023-03-05T13:31:26.756Z,11873,21,flounder,orca,dist1,lower-left,3pMFWfyz,validation - short,TRUE,Windows,2023-03-05,0
2023-03-05T13:31:42.939Z,14615,22,cello,marshmallow,dist2,upper-right,3pMFWfyz,validation - short,TRUE,Windows,2023-03-05,0
2023-03-04T11:17:31.485Z,11968,1,eye,eye,target,upper-left,3wpdrrwn,validation - short,TRUE,Android,2023-03-04,1
2023-03-04T11:17:38.129Z,5074,2,carrot,carrot,target,lower-right,3wpdrrwn,validation - short,TRUE,Android,2023-03-04,1
2023-03-04T11:17:46.793Z,5598,3,ant,ant,target,upper-right,3wpdrrwn,validation - short,TRUE,Android,2023-03-04,1
2023-03-04T11:17:53.741Z,5954,4,elk,elk,target,upper-left,3wpdrrwn,validation - short,TRUE,Android,2023-03-04,1
2023-03-04T11:18:02.185Z,7693,5,choir,orchestra,dist1,lower-right,3wpdrrwn,validation - short,TRUE,Android,2023-03-04,0
2023-03-04T11:18:13.113Z,4124,6,ventilator,ventilator,target,lower-left,3wpdrrwn,validation - short,TRUE,Android,2023-03-04,1
2023-03-04T11:18:31.442Z,17427,7,arugula,brusselsprouts,dist1,lower-left,3wpdrrwn,validation - short,TRUE,Android,2023-03-04,0
2023-03-04T11:18:36.748Z,4422,8,giraffe,giraffe,target,upper-left,3wpdrrwn,validation - short,TRUE,Android,2023-03-04,1
2023-03-04T11:18:42.754Z,5055,9,palmtree,palmtree,target,lower-left,3wpdrrwn,validation - short,TRUE,Android,2023-03-04,1
2023-03-04T11:18:51.870Z,7021,10,pineapple,pineapple,target,lower-right,3wpdrrwn,validation - short,TRUE,Android,2023-03-04,1
2023-03-04T11:18:58.402Z,5577,11,ocean,river,dist1,lower-left,3wpdrrwn,validation - short,TRUE,Android,2023-03-04,0
2023-03-04T11:19:03.093Z,3779,12,gazelle,astronaut,dist3,lower-left,3wpdrrwn,validation - short,TRUE,Android,2023-03-04,0
2023-03-04T11:19:12.382Z,8167,13,chanterelle,chestnut,dist1,lower-right,3wpdrrwn,validation - short,TRUE,Android,2023-03-04,0
2023-03-04T11:19:18.892Z,5748,14,ruin,goalkeeper,dist3,upper-left,3wpdrrwn,validation - short,TRUE,Android,2023-03-04,0
2023-03-04T11:19:25.583Z,4893,15,labyrinth,trafficjam,dist3,upper-right,3wpdrrwn,validation - short,TRUE,Android,2023-03-04,0
2023-03-04T11:19:35.025Z,7483,16,orchid,banner,dist3,lower-right,3wpdrrwn,validation - short,TRUE,Android,2023-03-04,0
2023-03-04T11:19:44.531Z,8531,17,zucchini,zucchini,target,upper-right,3wpdrrwn,validation - short,TRUE,Android,2023-03-04,1
2023-03-04T11:19:51.706Z,6283,18,kayak,backpack,dist2,upper-right,3wpdrrwn,validation - short,TRUE,Android,2023-03-04,0
2023-03-04T11:19:59.731Z,7052,19,lobster,lobster,target,upper-right,3wpdrrwn,validation - short,TRUE,Android,2023-03-04,1
2023-03-04T11:20:11.633Z,11216,20,carnation,tents,dist2,lower-left,3wpdrrwn,validation - short,TRUE,Android,2023-03-04,0
2023-03-04T11:20:18.653Z,5911,21,flounder,orca,dist1,lower-left,3wpdrrwn,validation - short,TRUE,Android,2023-03-04,0
2023-03-04T11:20:22.520Z,2968,22,cello,cello,target,lower-left,3wpdrrwn,validation - short,TRUE,Android,2023-03-04,1
2023-03-01T17:58:10.027Z,3336,1,eye,eye,target,upper-left,42kb9Tdb,validation - short,TRUE,Android,2023-03-01,1
2023-03-01T17:58:17.008Z,3544,2,carrot,carrot,target,lower-right,42kb9Tdb,validation - short,TRUE,Android,2023-03-01,1
2023-03-01T17:58:21.692Z,2884,3,ant,ant,target,upper-right,42kb9Tdb,validation - short,TRUE,Android,2023-03-01,1
2023-03-01T17:58:26.544Z,3275,4,elk,elk,target,upper-left,42kb9Tdb,validation - short,TRUE,Android,2023-03-01,1
2023-03-01T17:58:30.784Z,2666,5,choir,choir,target,upper-right,42kb9Tdb,validation - short,TRUE,Android,2023-03-01,1
2023-03-01T17:58:35.010Z,2889,6,ventilator,ventilator,target,lower-left,42kb9Tdb,validation - short,TRUE,Android,2023-03-01,1
2023-03-01T17:58:39.579Z,3264,7,arugula,dracula,dist2,upper-left,42kb9Tdb,validation - short,TRUE,Android,2023-03-01,0
2023-03-01T17:58:43.253Z,1889,8,giraffe,giraffe,target,upper-left,42kb9Tdb,validation - short,TRUE,Android,2023-03-01,1
2023-03-01T17:58:46.852Z,2309,9,palmtree,palmtree,target,lower-left,42kb9Tdb,validation - short,TRUE,Android,2023-03-01,1
2023-03-01T17:58:49.875Z,1919,10,pineapple,pineapple,target,lower-right,42kb9Tdb,validation - short,TRUE,Android,2023-03-01,1
2023-03-01T17:58:56.813Z,3591,11,ocean,ocean,target,upper-left,42kb9Tdb,validation - short,TRUE,Android,2023-03-01,1
2023-03-01T17:59:02.507Z,4387,12,gazelle,gazelle,target,lower-right,42kb9Tdb,validation - short,TRUE,Android,2023-03-01,1
2023-03-01T17:59:14.559Z,10605,13,chanterelle,chanterelle,target,upper-left,42kb9Tdb,validation - short,TRUE,Android,2023-03-01,1
2023-03-01T17:59:19.986Z,4029,14,ruin,ruin,target,lower-right,42kb9Tdb,validation - short,TRUE,Android,2023-03-01,1
2023-03-01T17:59:26.186Z,3209,15,labyrinth,labyrinth,target,lower-left,42kb9Tdb,validation - short,TRUE,Android,2023-03-01,1
2023-03-01T17:59:30.955Z,3342,16,orchid,orchid,target,lower-left,42kb9Tdb,validation - short,TRUE,Android,2023-03-01,1
2023-03-01T17:59:34.578Z,2216,17,zucchini,zucchini,target,upper-right,42kb9Tdb,validation - short,TRUE,Android,2023-03-01,1
2023-03-01T17:59:38.238Z,2443,18,kayak,kayak,target,upper-left,42kb9Tdb,validation - short,TRUE,Android,2023-03-01,1
2023-03-01T17:59:41.487Z,2145,19,lobster,lobster,target,upper-right,42kb9Tdb,validation - short,TRUE,Android,2023-03-01,1
2023-03-01T17:59:49.866Z,7161,20,carnation,violets,dist1,lower-right,42kb9Tdb,validation - short,TRUE,Android,2023-03-01,0
2023-03-01T17:59:56.339Z,3550,21,flounder,flounder,target,lower-right,42kb9Tdb,validation - short,TRUE,Android,2023-03-01,1
2023-03-01T18:00:03.001Z,5316,22,cello,harp,dist1,lower-right,42kb9Tdb,validation - short,TRUE,Android,2023-03-01,0
2023-03-05T17:07:38.677Z,12073,1,eye,eye,target,upper-left,4cvVFzY5,validation - short,TRUE,Android,2023-03-05,1
2023-03-05T17:07:53.982Z,9032,2,carrot,carrot,target,lower-right,4cvVFzY5,validation - short,TRUE,Android,2023-03-05,1
2023-03-05T17:08:00.975Z,3552,3,ant,ant,target,upper-right,4cvVFzY5,validation - short,TRUE,Android,2023-03-05,1
2023-03-05T17:08:47.874Z,41967,4,elk,skeleton,dist3,upper-right,4cvVFzY5,validation - short,TRUE,Android,2023-03-05,0
2023-03-05T17:09:06.827Z,13136,5,choir,pipe,dist2,upper-left,4cvVFzY5,validation - short,TRUE,Android,2023-03-05,0
2023-03-05T17:09:16.552Z,5303,6,ventilator,ventilator,target,lower-left,4cvVFzY5,validation - short,TRUE,Android,2023-03-05,1
2023-03-05T17:09:28.424Z,7857,7,arugula,arugula,target,lower-right,4cvVFzY5,validation - short,TRUE,Android,2023-03-05,1
2023-03-05T17:09:37.425Z,2264,8,giraffe,giraffe,target,upper-left,4cvVFzY5,validation - short,TRUE,Android,2023-03-05,1
2023-03-05T17:09:45.703Z,4868,9,palmtree,drinkingstraws,dist2,lower-right,4cvVFzY5,validation - short,TRUE,Android,2023-03-05,0
2023-03-05T17:09:55.099Z,5807,10,pineapple,pineapple,target,lower-right,4cvVFzY5,validation - short,TRUE,Android,2023-03-05,1
2023-03-05T17:10:02.032Z,3902,11,ocean,pelican,dist2,lower-right,4cvVFzY5,validation - short,TRUE,Android,2023-03-05,0
2023-03-05T17:10:15.265Z,7529,12,gazelle,gazelle,target,lower-right,4cvVFzY5,validation - short,TRUE,Android,2023-03-05,1
2023-03-05T17:10:25.101Z,5583,13,chanterelle,butterfly,dist2,lower-left,4cvVFzY5,validation - short,TRUE,Android,2023-03-05,0
2023-03-05T17:10:46.518Z,16909,14,ruin,goalkeeper,dist3,upper-left,4cvVFzY5,validation - short,TRUE,Android,2023-03-05,0
2023-03-05T17:10:56.752Z,7099,15,labyrinth,whirlwind,dist2,lower-right,4cvVFzY5,validation - short,TRUE,Android,2023-03-05,0
2023-03-05T17:11:05.172Z,5770,16,orchid,banner,dist3,lower-right,4cvVFzY5,validation - short,TRUE,Android,2023-03-05,0
2023-03-05T17:11:16.483Z,6105,17,zucchini,zucchini,target,upper-right,4cvVFzY5,validation - short,TRUE,Android,2023-03-05,1
2023-03-05T17:11:26.216Z,4565,18,kayak,boomerang,dist3,lower-right,4cvVFzY5,validation - short,TRUE,Android,2023-03-05,0
2023-03-05T17:11:35.642Z,4518,19,lobster,crab,dist1,lower-right,4cvVFzY5,validation - short,TRUE,Android,2023-03-05,0
2023-03-05T17:11:44.015Z,3240,20,carnation,violets,dist1,lower-right,4cvVFzY5,validation - short,TRUE,Android,2023-03-05,0
2023-03-05T17:11:52.308Z,3676,21,flounder,flounder,target,lower-right,4cvVFzY5,validation - short,TRUE,Android,2023-03-05,1
2023-03-05T17:12:00.652Z,6072,22,cello,harp,dist1,lower-right,4cvVFzY5,validation - short,TRUE,Android,2023-03-05,0
2023-03-07T14:53:31.387Z,9816,1,eye,eye,target,upper-left,4KCMS5Bd,validation - short,TRUE,Windows,2023-03-07,1
2023-03-07T14:53:45.539Z,12812,2,carrot,carrot,target,lower-right,4KCMS5Bd,validation - short,TRUE,Windows,2023-03-07,1
2023-03-07T14:53:51.443Z,4357,3,ant,ant,target,upper-right,4KCMS5Bd,validation - short,TRUE,Windows,2023-03-07,1
2023-03-07T14:53:57.694Z,3931,4,elk,elk,target,upper-left,4KCMS5Bd,validation - short,TRUE,Windows,2023-03-07,1
2023-03-07T14:54:25.906Z,25939,5,choir,choir,target,upper-right,4KCMS5Bd,validation - short,TRUE,Windows,2023-03-07,1
2023-03-07T14:54:41.669Z,14075,6,ventilator,fan,dist1,lower-right,4KCMS5Bd,validation - short,TRUE,Windows,2023-03-07,0
2023-03-07T14:54:49.691Z,6074,7,arugula,arugula,target,lower-right,4KCMS5Bd,validation - short,TRUE,Windows,2023-03-07,1
2023-03-07T14:54:55.186Z,4507,8,giraffe,giraffe,target,upper-left,4KCMS5Bd,validation - short,TRUE,Windows,2023-03-07,1
2023-03-07T14:55:10.951Z,14240,9,palmtree,cactus,dist1,upper-right,4KCMS5Bd,validation - short,TRUE,Windows,2023-03-07,0
2023-03-07T14:55:17.705Z,4765,10,pineapple,tie,dist3,upper-left,4KCMS5Bd,validation - short,TRUE,Windows,2023-03-07,0
2023-03-07T14:55:31.541Z,7197,11,ocean,pelican,dist2,lower-right,4KCMS5Bd,validation - short,TRUE,Windows,2023-03-07,0
2023-03-07T14:55:45.108Z,11634,12,gazelle,gazelle,target,lower-right,4KCMS5Bd,validation - short,TRUE,Windows,2023-03-07,1
2023-03-07T14:55:49.427Z,3316,13,chanterelle,butterfly,dist2,lower-left,4KCMS5Bd,validation - short,TRUE,Windows,2023-03-07,0
2023-03-07T14:56:03.002Z,11243,14,ruin,goalkeeper,dist3,upper-left,4KCMS5Bd,validation - short,TRUE,Windows,2023-03-07,0
2023-03-07T14:56:17.380Z,11514,15,labyrinth,whirlwind,dist2,lower-right,4KCMS5Bd,validation - short,TRUE,Windows,2023-03-07,0
2023-03-07T14:56:31.767Z,13343,16,orchid,banner,dist3,lower-right,4KCMS5Bd,validation - short,TRUE,Windows,2023-03-07,0
2023-03-07T14:56:43.094Z,10004,17,zucchini,broccoli,dist1,lower-right,4KCMS5Bd,validation - short,TRUE,Windows,2023-03-07,0
2023-03-07T14:56:54.727Z,8317,18,kayak,boomerang,dist3,lower-right,4KCMS5Bd,validation - short,TRUE,Windows,2023-03-07,0
2023-03-07T14:57:03.211Z,6694,19,lobster,lobster,target,upper-right,4KCMS5Bd,validation - short,TRUE,Windows,2023-03-07,1
2023-03-07T14:57:22.220Z,12990,20,carnation,violets,dist1,lower-right,4KCMS5Bd,validation - short,TRUE,Windows,2023-03-07,0
2023-03-07T14:57:31.848Z,8012,21,flounder,pyramid,dist3,upper-right,4KCMS5Bd,validation - short,TRUE,Windows,2023-03-07,0
2023-03-07T14:57:39.900Z,6510,22,cello,harp,dist1,lower-right,4KCMS5Bd,validation - short,TRUE,Windows,2023-03-07,0
2023-03-01T18:06:21.201Z,12474,1,eye,eye,target,upper-left,4mBiTkwg,validation - short,TRUE,Mac OS X,2023-03-01,1
2023-03-01T18:06:28.810Z,3422,2,carrot,carrot,target,lower-right,4mBiTkwg,validation - short,TRUE,Mac OS X,2023-03-01,1
2023-03-01T18:06:35.578Z,3111,3,ant,ant,target,upper-right,4mBiTkwg,validation - short,TRUE,Mac OS X,2023-03-01,1
2023-03-01T18:06:43.043Z,3208,4,elk,elk,target,upper-left,4mBiTkwg,validation - short,TRUE,Mac OS X,2023-03-01,1
2023-03-01T18:06:47.044Z,2056,5,choir,pipe,dist2,upper-left,4mBiTkwg,validation - short,TRUE,Mac OS X,2023-03-01,0
2023-03-01T18:06:52.603Z,4036,6,ventilator,ventilator,target,lower-left,4mBiTkwg,validation - short,TRUE,Mac OS X,2023-03-01,1
2023-03-01T18:06:59.872Z,3085,7,arugula,dracula,dist2,upper-left,4mBiTkwg,validation - short,TRUE,Mac OS X,2023-03-01,0
2023-03-01T18:07:03.749Z,1613,8,giraffe,giraffe,target,upper-left,4mBiTkwg,validation - short,TRUE,Mac OS X,2023-03-01,1
2023-03-01T18:07:08.547Z,1853,9,palmtree,palmtree,target,lower-left,4mBiTkwg,validation - short,TRUE,Mac OS X,2023-03-01,1
2023-03-01T18:07:13.132Z,3101,10,pineapple,pineapple,target,lower-right,4mBiTkwg,validation - short,TRUE,Mac OS X,2023-03-01,1
2023-03-01T18:07:18.293Z,3423,11,ocean,ocean,target,upper-left,4mBiTkwg,validation - short,TRUE,Mac OS X,2023-03-01,1
2023-03-01T18:07:25.054Z,4954,12,gazelle,dragonfly,dist2,upper-left,4mBiTkwg,validation - short,TRUE,Mac OS X,2023-03-01,0
2023-03-01T18:07:30.630Z,3178,13,chanterelle,chanterelle,target,upper-left,4mBiTkwg,validation - short,TRUE,Mac OS X,2023-03-01,1
2023-03-01T18:07:35.949Z,4061,14,ruin,ruin,target,lower-right,4mBiTkwg,validation - short,TRUE,Mac OS X,2023-03-01,1
2023-03-01T18:07:39.419Z,2317,15,labyrinth,labyrinth,target,lower-left,4mBiTkwg,validation - short,TRUE,Mac OS X,2023-03-01,1
2023-03-01T18:07:47.902Z,7260,16,orchid,shrub,dist1,upper-left,4mBiTkwg,validation - short,TRUE,Mac OS X,2023-03-01,0
2023-03-01T18:07:52.061Z,2435,17,zucchini,zucchini,target,upper-right,4mBiTkwg,validation - short,TRUE,Mac OS X,2023-03-01,1
2023-03-01T18:07:56.764Z,3120,18,kayak,kayak,target,upper-left,4mBiTkwg,validation - short,TRUE,Mac OS X,2023-03-01,1
2023-03-01T18:08:16.028Z,17275,19,lobster,lobster,target,upper-right,4mBiTkwg,validation - short,TRUE,Mac OS X,2023-03-01,1
2023-03-01T18:08:21.511Z,3772,20,carnation,violets,dist1,lower-right,4mBiTkwg,validation - short,TRUE,Mac OS X,2023-03-01,0
2023-03-01T18:08:32.915Z,10152,21,flounder,flounder,target,lower-right,4mBiTkwg,validation - short,TRUE,Mac OS X,2023-03-01,1
2023-03-01T18:08:38.401Z,4104,22,cello,marshmallow,dist2,upper-right,4mBiTkwg,validation - short,TRUE,Mac OS X,2023-03-01,0
2023-03-05T16:45:17.250Z,5590,1,eye,eye,target,upper-left,4PHvPERC,validation - short,TRUE,Mac OS X,2023-03-05,1
2023-03-05T16:45:26.239Z,6221,2,carrot,carrot,target,lower-right,4PHvPERC,validation - short,TRUE,Mac OS X,2023-03-05,1
2023-03-05T16:45:31.494Z,2733,3,ant,ant,target,upper-right,4PHvPERC,validation - short,TRUE,Mac OS X,2023-03-05,1
2023-03-05T16:45:36.838Z,3218,4,elk,elk,target,upper-left,4PHvPERC,validation - short,TRUE,Mac OS X,2023-03-05,1
2023-03-05T16:45:40.994Z,2603,5,choir,choir,target,upper-right,4PHvPERC,validation - short,TRUE,Mac OS X,2023-03-05,1
2023-03-05T16:45:44.533Z,1892,6,ventilator,ventilator,target,lower-left,4PHvPERC,validation - short,TRUE,Mac OS X,2023-03-05,1
2023-03-05T16:45:48.386Z,2821,7,arugula,arugula,target,lower-right,4PHvPERC,validation - short,TRUE,Mac OS X,2023-03-05,1
2023-03-05T16:45:51.299Z,1873,8,giraffe,giraffe,target,upper-left,4PHvPERC,validation - short,TRUE,Mac OS X,2023-03-05,1
2023-03-05T16:45:54.548Z,2125,9,palmtree,palmtree,target,lower-left,4PHvPERC,validation - short,TRUE,Mac OS X,2023-03-05,1
2023-03-05T16:46:03.169Z,7386,10,pineapple,pineapple,target,lower-right,4PHvPERC,validation - short,TRUE,Mac OS X,2023-03-05,1
2023-03-05T16:46:07.186Z,3048,11,ocean,ocean,target,upper-left,4PHvPERC,validation - short,TRUE,Mac OS X,2023-03-05,1
2023-03-05T16:46:12.199Z,3756,12,gazelle,gazelle,target,lower-right,4PHvPERC,validation - short,TRUE,Mac OS X,2023-03-05,1
2023-03-05T16:46:18.998Z,5926,13,chanterelle,chanterelle,target,upper-left,4PHvPERC,validation - short,TRUE,Mac OS X,2023-03-05,1
2023-03-05T16:46:25.888Z,5651,14,ruin,ruin,target,lower-right,4PHvPERC,validation - short,TRUE,Mac OS X,2023-03-05,1
2023-03-05T16:46:29.573Z,2659,15,labyrinth,labyrinth,target,lower-left,4PHvPERC,validation - short,TRUE,Mac OS X,2023-03-05,1
2023-03-05T16:46:33.770Z,3331,16,orchid,orchid,target,lower-left,4PHvPERC,validation - short,TRUE,Mac OS X,2023-03-05,1
2023-03-05T16:46:37.544Z,2772,17,zucchini,zucchini,target,upper-right,4PHvPERC,validation - short,TRUE,Mac OS X,2023-03-05,1
2023-03-05T16:46:40.314Z,1791,18,kayak,kayak,target,upper-left,4PHvPERC,validation - short,TRUE,Mac OS X,2023-03-05,1
2023-03-05T16:46:46.274Z,4890,19,lobster,lobster,target,upper-right,4PHvPERC,validation - short,TRUE,Mac OS X,2023-03-05,1
2023-03-05T16:46:50.654Z,3326,20,carnation,violets,dist1,lower-right,4PHvPERC,validation - short,TRUE,Mac OS X,2023-03-05,0
2023-03-05T16:46:53.593Z,1944,21,flounder,flounder,target,lower-right,4PHvPERC,validation - short,TRUE,Mac OS X,2023-03-05,1
2023-03-05T16:46:57.041Z,2349,22,cello,harp,dist1,lower-right,4PHvPERC,validation - short,TRUE,Mac OS X,2023-03-05,0
2023-03-01T17:11:17.508Z,3079,1,eye,eye,target,upper-left,4ZR7CvXE,validation - short,TRUE,Mac OS X,2023-03-01,1
2023-03-01T17:11:24.822Z,3348,2,carrot,carrot,target,lower-right,4ZR7CvXE,validation - short,TRUE,Mac OS X,2023-03-01,1
2023-03-01T17:11:34.236Z,6997,3,ant,ant,target,upper-right,4ZR7CvXE,validation - short,TRUE,Mac OS X,2023-03-01,1
2023-03-01T17:11:42.317Z,4646,4,elk,elk,target,upper-left,4ZR7CvXE,validation - short,TRUE,Mac OS X,2023-03-01,1
2023-03-01T17:11:49.415Z,4034,5,choir,choir,target,upper-right,4ZR7CvXE,validation - short,TRUE,Mac OS X,2023-03-01,1
2023-03-01T17:11:57.879Z,3682,6,ventilator,ventilator,target,lower-left,4ZR7CvXE,validation - short,TRUE,Mac OS X,2023-03-01,1
2023-03-01T17:12:07.027Z,4905,7,arugula,arugula,target,lower-right,4ZR7CvXE,validation - short,TRUE,Mac OS X,2023-03-01,1
2023-03-01T17:12:13.857Z,3288,8,giraffe,giraffe,target,upper-left,4ZR7CvXE,validation - short,TRUE,Mac OS X,2023-03-01,1
2023-03-01T17:12:29.767Z,7288,9,palmtree,palmtree,target,lower-left,4ZR7CvXE,validation - short,TRUE,Mac OS X,2023-03-01,1
2023-03-01T17:12:37.108Z,2380,10,pineapple,pineapple,target,lower-right,4ZR7CvXE,validation - short,TRUE,Mac OS X,2023-03-01,1
2023-03-01T17:13:06.726Z,25086,11,ocean,pelican,dist2,lower-right,4ZR7CvXE,validation - short,TRUE,Mac OS X,2023-03-01,0
2023-03-01T17:13:12.635Z,3570,12,gazelle,dragonfly,dist2,upper-left,4ZR7CvXE,validation - short,TRUE,Mac OS X,2023-03-01,0
2023-03-01T17:13:25.000Z,7386,13,chanterelle,chanterelle,target,upper-left,4ZR7CvXE,validation - short,TRUE,Mac OS X,2023-03-01,1
2023-03-01T17:13:36.330Z,8490,14,ruin,ruin,target,lower-right,4ZR7CvXE,validation - short,TRUE,Mac OS X,2023-03-01,1
2023-03-01T17:13:39.813Z,1993,15,labyrinth,labyrinth,target,lower-left,4ZR7CvXE,validation - short,TRUE,Mac OS X,2023-03-01,1
2023-03-01T17:13:47.559Z,4909,16,orchid,orchid,target,lower-left,4ZR7CvXE,validation - short,TRUE,Mac OS X,2023-03-01,1
2023-03-01T17:14:04.572Z,10000,17,zucchini,zucchini,target,upper-right,4ZR7CvXE,validation - short,TRUE,Mac OS X,2023-03-01,1
2023-03-01T17:14:16.198Z,4639,18,kayak,boomerang,dist3,lower-right,4ZR7CvXE,validation - short,TRUE,Mac OS X,2023-03-01,0
2023-03-01T17:14:25.129Z,6058,19,lobster,lobster,target,upper-right,4ZR7CvXE,validation - short,TRUE,Mac OS X,2023-03-01,1
2023-03-01T17:14:29.327Z,2858,20,carnation,carnation,target,upper-right,4ZR7CvXE,validation - short,TRUE,Mac OS X,2023-03-01,1
2023-03-01T17:14:40.024Z,8563,21,flounder,flounder,target,lower-right,4ZR7CvXE,validation - short,TRUE,Mac OS X,2023-03-01,1
2023-03-01T17:14:50.654Z,6869,22,cello,harp,dist1,lower-right,4ZR7CvXE,validation - short,TRUE,Mac OS X,2023-03-01,0
2023-03-01T16:01:15.352Z,5066,1,eye,eye,target,upper-left,5cdQstKn,validation - short,TRUE,Mac OS X,2023-03-01,1
2023-03-01T16:01:24.496Z,4612,2,carrot,carrot,target,lower-right,5cdQstKn,validation - short,TRUE,Mac OS X,2023-03-01,1
2023-03-01T16:01:29.085Z,2846,3,ant,ant,target,upper-right,5cdQstKn,validation - short,TRUE,Mac OS X,2023-03-01,1
2023-03-01T16:01:34.563Z,2801,4,elk,elk,target,upper-left,5cdQstKn,validation - short,TRUE,Mac OS X,2023-03-01,1
2023-03-01T16:01:39.413Z,3473,5,choir,choir,target,upper-right,5cdQstKn,validation - short,TRUE,Mac OS X,2023-03-01,1
2023-03-01T16:01:42.891Z,2000,6,ventilator,ventilator,target,lower-left,5cdQstKn,validation - short,TRUE,Mac OS X,2023-03-01,1
2023-03-01T16:01:50.016Z,5944,7,arugula,dracula,dist2,upper-left,5cdQstKn,validation - short,TRUE,Mac OS X,2023-03-01,0
2023-03-01T16:01:55.462Z,3630,8,giraffe,giraffe,target,upper-left,5cdQstKn,validation - short,TRUE,Mac OS X,2023-03-01,1
2023-03-01T16:01:58.634Z,1950,9,palmtree,palmtree,target,lower-left,5cdQstKn,validation - short,TRUE,Mac OS X,2023-03-01,1
2023-03-01T16:02:02.675Z,2841,10,pineapple,pineapple,target,lower-right,5cdQstKn,validation - short,TRUE,Mac OS X,2023-03-01,1
2023-03-01T16:02:06.729Z,2994,11,ocean,ocean,target,upper-left,5cdQstKn,validation - short,TRUE,Mac OS X,2023-03-01,1
2023-03-01T16:02:11.744Z,3227,12,gazelle,gazelle,target,lower-right,5cdQstKn,validation - short,TRUE,Mac OS X,2023-03-01,1
2023-03-01T16:02:22.603Z,9752,13,chanterelle,chanterelle,target,upper-left,5cdQstKn,validation - short,TRUE,Mac OS X,2023-03-01,1
2023-03-01T16:02:29.467Z,4948,14,ruin,ruin,target,lower-right,5cdQstKn,validation - short,TRUE,Mac OS X,2023-03-01,1
2023-03-01T16:02:32.843Z,1954,15,labyrinth,labyrinth,target,lower-left,5cdQstKn,validation - short,TRUE,Mac OS X,2023-03-01,1
2023-03-01T16:02:39.835Z,6017,16,orchid,banner,dist3,lower-right,5cdQstKn,validation - short,TRUE,Mac OS X,2023-03-01,0
2023-03-01T16:02:44.262Z,3173,17,zucchini,zucchini,target,upper-right,5cdQstKn,validation - short,TRUE,Mac OS X,2023-03-01,1
2023-03-01T16:02:51.706Z,6379,18,kayak,sailingboat,dist1,lower-left,5cdQstKn,validation - short,TRUE,Mac OS X,2023-03-01,0
2023-03-01T16:02:55.985Z,3073,19,lobster,lobster,target,upper-right,5cdQstKn,validation - short,TRUE,Mac OS X,2023-03-01,1
2023-03-01T16:03:01.016Z,2869,20,carnation,violets,dist1,lower-right,5cdQstKn,validation - short,TRUE,Mac OS X,2023-03-01,0
2023-03-01T16:03:07.266Z,4701,21,flounder,elderberry,dist2,upper-left,5cdQstKn,validation - short,TRUE,Mac OS X,2023-03-01,0
2023-03-01T16:03:10.608Z,1678,22,cello,cello,target,lower-left,5cdQstKn,validation - short,TRUE,Mac OS X,2023-03-01,1
2023-03-02T13:03:17.587Z,3864,1,eye,eye,target,upper-left,5DezdVE6,validation - short,TRUE,Mac OS X,2023-03-02,1
2023-03-02T13:03:25.489Z,3574,2,carrot,carrot,target,lower-right,5DezdVE6,validation - short,TRUE,Mac OS X,2023-03-02,1
2023-03-02T13:03:31.778Z,2396,3,ant,ant,target,upper-right,5DezdVE6,validation - short,TRUE,Mac OS X,2023-03-02,1
2023-03-02T13:03:36.215Z,3278,4,elk,elk,target,upper-left,5DezdVE6,validation - short,TRUE,Mac OS X,2023-03-02,1
2023-03-02T13:03:54.541Z,17189,5,choir,orchestra,dist1,lower-right,5DezdVE6,validation - short,TRUE,Mac OS X,2023-03-02,0
2023-03-02T13:03:59.990Z,3643,6,ventilator,ventilator,target,lower-left,5DezdVE6,validation - short,TRUE,Mac OS X,2023-03-02,1
2023-03-02T13:04:04.443Z,3072,7,arugula,arugula,target,lower-right,5DezdVE6,validation - short,TRUE,Mac OS X,2023-03-02,1
2023-03-02T13:04:07.959Z,1935,8,giraffe,giraffe,target,upper-left,5DezdVE6,validation - short,TRUE,Mac OS X,2023-03-02,1
2023-03-02T13:04:10.835Z,1502,9,palmtree,palmtree,target,lower-left,5DezdVE6,validation - short,TRUE,Mac OS X,2023-03-02,1
2023-03-02T13:04:13.434Z,1680,10,pineapple,pineapple,target,lower-right,5DezdVE6,validation - short,TRUE,Mac OS X,2023-03-02,1
2023-03-02T13:04:19.277Z,3871,11,ocean,factory,dist3,upper-right,5DezdVE6,validation - short,TRUE,Mac OS X,2023-03-02,0
2023-03-02T13:04:27.943Z,3649,12,gazelle,gazelle,target,lower-right,5DezdVE6,validation - short,TRUE,Mac OS X,2023-03-02,1
2023-03-02T13:04:39.022Z,7344,13,chanterelle,chanterelle,target,upper-left,5DezdVE6,validation - short,TRUE,Mac OS X,2023-03-02,1
2023-03-02T13:04:54.816Z,6254,14,ruin,ruin,target,lower-right,5DezdVE6,validation - short,TRUE,Mac OS X,2023-03-02,1
2023-03-02T13:04:59.743Z,2705,15,labyrinth,labyrinth,target,lower-left,5DezdVE6,validation - short,TRUE,Mac OS X,2023-03-02,1
2023-03-02T13:05:08.134Z,7007,16,orchid,orchid,target,lower-left,5DezdVE6,validation - short,TRUE,Mac OS X,2023-03-02,1
2023-03-02T13:05:13.511Z,3365,17,zucchini,zucchini,target,upper-right,5DezdVE6,validation - short,TRUE,Mac OS X,2023-03-02,1
2023-03-02T13:05:35.984Z,20326,18,kayak,boomerang,dist3,lower-right,5DezdVE6,validation - short,TRUE,Mac OS X,2023-03-02,0
2023-03-02T13:06:07.711Z,28746,19,lobster,microscope,dist3,upper-left,5DezdVE6,validation - short,TRUE,Mac OS X,2023-03-02,0
2023-03-02T13:06:13.319Z,3812,20,carnation,carnation,target,upper-right,5DezdVE6,validation - short,TRUE,Mac OS X,2023-03-02,1
2023-03-02T13:06:17.901Z,3157,21,flounder,elderberry,dist2,upper-left,5DezdVE6,validation - short,TRUE,Mac OS X,2023-03-02,0
2023-03-02T13:06:31.644Z,12519,22,cello,harp,dist1,lower-right,5DezdVE6,validation - short,TRUE,Mac OS X,2023-03-02,0
2023-03-03T13:26:37.340Z,4743,1,eye,eye,target,upper-left,5eoNKHga,validation - short,FALSE,Mac OS X,2023-03-03,1
2023-03-03T13:26:46.401Z,3751,2,carrot,carrot,target,lower-right,5eoNKHga,validation - short,FALSE,Mac OS X,2023-03-03,1
2023-03-03T13:26:55.069Z,4698,3,ant,ant,target,upper-right,5eoNKHga,validation - short,FALSE,Mac OS X,2023-03-03,1
2023-03-03T13:27:01.807Z,3981,4,elk,elk,target,upper-left,5eoNKHga,validation - short,FALSE,Mac OS X,2023-03-03,1
2023-03-03T13:27:09.314Z,5081,5,choir,orchestra,dist1,lower-right,5eoNKHga,validation - short,FALSE,Mac OS X,2023-03-03,0
2023-03-03T13:27:21.220Z,7340,6,ventilator,ventilator,target,lower-left,5eoNKHga,validation - short,FALSE,Mac OS X,2023-03-03,1
2023-03-03T13:27:26.425Z,2729,7,arugula,arugula,target,lower-right,5eoNKHga,validation - short,FALSE,Mac OS X,2023-03-03,1
2023-03-03T13:27:30.489Z,2325,8,giraffe,giraffe,target,upper-left,5eoNKHga,validation - short,FALSE,Mac OS X,2023-03-03,1
2023-03-03T13:27:35.654Z,2386,9,palmtree,palmtree,target,lower-left,5eoNKHga,validation - short,FALSE,Mac OS X,2023-03-03,1
2023-03-03T13:27:41.689Z,2989,10,pineapple,pineapple,target,lower-right,5eoNKHga,validation - short,FALSE,Mac OS X,2023-03-03,1
2023-03-03T13:27:47.712Z,4177,11,ocean,ocean,target,upper-left,5eoNKHga,validation - short,FALSE,Mac OS X,2023-03-03,1
2023-03-03T13:27:59.657Z,6193,12,gazelle,gazelle,target,lower-right,5eoNKHga,validation - short,FALSE,Mac OS X,2023-03-03,1
2023-03-03T13:28:06.330Z,4221,13,chanterelle,chanterelle,target,upper-left,5eoNKHga,validation - short,FALSE,Mac OS X,2023-03-03,1
2023-03-03T13:28:15.920Z,6828,14,ruin,ruin,target,lower-right,5eoNKHga,validation - short,FALSE,Mac OS X,2023-03-03,1
2023-03-03T13:28:23.002Z,3980,15,labyrinth,labyrinth,target,lower-left,5eoNKHga,validation - short,FALSE,Mac OS X,2023-03-03,1
2023-03-03T13:28:29.246Z,3833,16,orchid,orchid,target,lower-left,5eoNKHga,validation - short,FALSE,Mac OS X,2023-03-03,1
2023-03-03T13:28:40.647Z,8524,17,zucchini,zucchini,target,upper-right,5eoNKHga,validation - short,FALSE,Mac OS X,2023-03-03,1
2023-03-03T13:29:08.413Z,24881,18,kayak,kayak,target,upper-left,5eoNKHga,validation - short,FALSE,Mac OS X,2023-03-03,1
2023-03-03T13:29:23.431Z,11870,19,lobster,lobster,target,upper-right,5eoNKHga,validation - short,FALSE,Mac OS X,2023-03-03,1
2023-03-03T13:29:51.528Z,25253,20,carnation,carnation,target,upper-right,5eoNKHga,validation - short,FALSE,Mac OS X,2023-03-03,1
2023-03-03T13:30:02.015Z,7389,21,flounder,elderberry,dist2,upper-left,5eoNKHga,validation - short,FALSE,Mac OS X,2023-03-03,0
2023-03-03T13:30:08.073Z,3127,22,cello,cello,target,lower-left,5eoNKHga,validation - short,FALSE,Mac OS X,2023-03-03,1
2023-03-05T17:39:06.179Z,8300,1,eye,eye,target,upper-left,5nSq2ZgC,validation - short,FALSE,Windows,2023-03-05,1
2023-03-05T17:39:15.493Z,5238,2,carrot,carrot,target,lower-right,5nSq2ZgC,validation - short,FALSE,Windows,2023-03-05,1
2023-03-05T17:39:22.314Z,4919,3,ant,ant,target,upper-right,5nSq2ZgC,validation - short,FALSE,Windows,2023-03-05,1
2023-03-05T17:39:31.928Z,6218,4,elk,elk,target,upper-left,5nSq2ZgC,validation - short,FALSE,Windows,2023-03-05,1
2023-03-05T17:39:53.067Z,18812,5,choir,orchestra,dist1,lower-right,5nSq2ZgC,validation - short,FALSE,Windows,2023-03-05,0
2023-03-05T17:40:00.783Z,4577,6,ventilator,ventilator,target,lower-left,5nSq2ZgC,validation - short,FALSE,Windows,2023-03-05,1
2023-03-05T17:40:21.882Z,19011,7,arugula,dracula,dist2,upper-left,5nSq2ZgC,validation - short,FALSE,Windows,2023-03-05,0
2023-03-05T17:40:27.997Z,3221,8,giraffe,giraffe,target,upper-left,5nSq2ZgC,validation - short,FALSE,Windows,2023-03-05,1
2023-03-05T17:40:33.418Z,3207,9,palmtree,palmtree,target,lower-left,5nSq2ZgC,validation - short,FALSE,Windows,2023-03-05,1
2023-03-05T17:40:39.196Z,3971,10,pineapple,pineapple,target,lower-right,5nSq2ZgC,validation - short,FALSE,Windows,2023-03-05,1
2023-03-05T17:40:48.330Z,6221,11,ocean,ocean,target,upper-left,5nSq2ZgC,validation - short,FALSE,Windows,2023-03-05,1
2023-03-05T17:41:18.050Z,27767,12,gazelle,gazelle,target,lower-right,5nSq2ZgC,validation - short,FALSE,Windows,2023-03-05,1
2023-03-05T17:41:39.922Z,18145,13,chanterelle,chanterelle,target,upper-left,5nSq2ZgC,validation - short,FALSE,Windows,2023-03-05,1
2023-03-05T17:41:52.446Z,10239,14,ruin,ruin,target,lower-right,5nSq2ZgC,validation - short,FALSE,Windows,2023-03-05,1
2023-03-05T17:42:02.941Z,3447,15,labyrinth,labyrinth,target,lower-left,5nSq2ZgC,validation - short,FALSE,Windows,2023-03-05,1
2023-03-05T17:42:27.308Z,21957,16,orchid,orchid,target,lower-left,5nSq2ZgC,validation - short,FALSE,Windows,2023-03-05,1
2023-03-05T17:42:35.465Z,5266,17,zucchini,zucchini,target,upper-right,5nSq2ZgC,validation - short,FALSE,Windows,2023-03-05,1
2023-03-05T17:42:43.042Z,5580,18,kayak,kayak,target,upper-left,5nSq2ZgC,validation - short,FALSE,Windows,2023-03-05,1
2023-03-05T17:42:54.372Z,9351,19,lobster,lobster,target,upper-right,5nSq2ZgC,validation - short,FALSE,Windows,2023-03-05,1
2023-03-05T17:43:06.396Z,8708,20,carnation,violets,dist1,lower-right,5nSq2ZgC,validation - short,FALSE,Windows,2023-03-05,0
2023-03-05T17:43:13.088Z,4927,21,flounder,flounder,target,lower-right,5nSq2ZgC,validation - short,FALSE,Windows,2023-03-05,1
2023-03-05T17:43:19.675Z,4989,22,cello,cello,target,lower-left,5nSq2ZgC,validation - short,FALSE,Windows,2023-03-05,1
2023-03-01T18:21:43.052Z,4141,1,eye,eye,target,upper-left,5sKsnepR,validation - short,TRUE,Android,2023-03-01,1
2023-03-01T18:21:49.251Z,3665,2,carrot,carrot,target,lower-right,5sKsnepR,validation - short,TRUE,Android,2023-03-01,1
2023-03-01T18:21:53.785Z,2853,3,ant,ant,target,upper-right,5sKsnepR,validation - short,TRUE,Android,2023-03-01,1
2023-03-01T18:22:04.914Z,9712,4,elk,elk,target,upper-left,5sKsnepR,validation - short,TRUE,Android,2023-03-01,1
2023-03-01T18:22:08.870Z,2362,5,choir,choir,target,upper-right,5sKsnepR,validation - short,TRUE,Android,2023-03-01,1
2023-03-01T18:22:13.084Z,2579,6,ventilator,ventilator,target,lower-left,5sKsnepR,validation - short,TRUE,Android,2023-03-01,1
2023-03-01T18:22:20.017Z,5496,7,arugula,dracula,dist2,upper-left,5sKsnepR,validation - short,TRUE,Android,2023-03-01,0
2023-03-01T18:22:25.786Z,1891,8,giraffe,giraffe,target,upper-left,5sKsnepR,validation - short,TRUE,Android,2023-03-01,1
2023-03-01T18:22:29.777Z,2419,9,palmtree,palmtree,target,lower-left,5sKsnepR,validation - short,TRUE,Android,2023-03-01,1
2023-03-01T18:22:33.519Z,1993,10,pineapple,pineapple,target,lower-right,5sKsnepR,validation - short,TRUE,Android,2023-03-01,1
2023-03-01T18:22:39.387Z,4461,11,ocean,ocean,target,upper-left,5sKsnepR,validation - short,TRUE,Android,2023-03-01,1
2023-03-01T18:22:51.067Z,10156,12,gazelle,gazelle,target,lower-right,5sKsnepR,validation - short,TRUE,Android,2023-03-01,1
2023-03-01T18:23:06.489Z,14201,13,chanterelle,chanterelle,target,upper-left,5sKsnepR,validation - short,TRUE,Android,2023-03-01,1
2023-03-01T18:23:12.475Z,4548,14,ruin,ruin,target,lower-right,5sKsnepR,validation - short,TRUE,Android,2023-03-01,1
2023-03-01T18:23:16.449Z,2742,15,labyrinth,labyrinth,target,lower-left,5sKsnepR,validation - short,TRUE,Android,2023-03-01,1
2023-03-01T18:23:39.507Z,21748,16,orchid,orchid,target,lower-left,5sKsnepR,validation - short,TRUE,Android,2023-03-01,1
2023-03-01T18:23:47.394Z,6488,17,zucchini,zucchini,target,upper-right,5sKsnepR,validation - short,TRUE,Android,2023-03-01,1
2023-03-01T18:24:00.823Z,11708,18,kayak,kayak,target,upper-left,5sKsnepR,validation - short,TRUE,Android,2023-03-01,1
2023-03-01T18:24:13.514Z,11070,19,lobster,clip,dist2,lower-left,5sKsnepR,validation - short,TRUE,Android,2023-03-01,0
2023-03-01T18:24:39.818Z,24232,20,carnation,violets,dist1,lower-right,5sKsnepR,validation - short,TRUE,Android,2023-03-01,0
2023-03-01T18:24:50.676Z,9077,21,flounder,flounder,target,lower-right,5sKsnepR,validation - short,TRUE,Android,2023-03-01,1
2023-03-01T18:25:06.104Z,13791,22,cello,harp,dist1,lower-right,5sKsnepR,validation - short,TRUE,Android,2023-03-01,0
2023-03-04T14:27:56.307Z,4182,1,eye,eye,target,upper-left,5URsbe1m,validation - short,TRUE,Android,2023-03-04,1
2023-03-04T14:28:07.800Z,3683,2,carrot,carrot,target,lower-right,5URsbe1m,validation - short,TRUE,Android,2023-03-04,1
2023-03-04T14:28:22.451Z,8366,3,ant,ant,target,upper-right,5URsbe1m,validation - short,TRUE,Android,2023-03-04,1
2023-03-04T14:28:29.377Z,3121,4,elk,elk,target,upper-left,5URsbe1m,validation - short,TRUE,Android,2023-03-04,1
2023-03-04T14:28:38.428Z,6472,5,choir,pipe,dist2,upper-left,5URsbe1m,validation - short,TRUE,Android,2023-03-04,0
2023-03-04T14:28:44.963Z,3001,6,ventilator,ventilator,target,lower-left,5URsbe1m,validation - short,TRUE,Android,2023-03-04,1
2023-03-04T14:28:59.508Z,10943,7,arugula,brusselsprouts,dist1,lower-left,5URsbe1m,validation - short,TRUE,Android,2023-03-04,0
2023-03-04T14:29:09.239Z,1943,8,giraffe,giraffe,target,upper-left,5URsbe1m,validation - short,TRUE,Android,2023-03-04,1
2023-03-04T14:29:19.328Z,2388,9,palmtree,palmtree,target,lower-left,5URsbe1m,validation - short,TRUE,Android,2023-03-04,1
2023-03-04T14:29:30.039Z,8445,10,pineapple,pineapple,target,lower-right,5URsbe1m,validation - short,TRUE,Android,2023-03-04,1
2023-03-04T14:29:37.143Z,6014,11,ocean,ocean,target,upper-left,5URsbe1m,validation - short,TRUE,Android,2023-03-04,1
2023-03-04T14:29:44.876Z,5244,12,gazelle,gazelle,target,lower-right,5URsbe1m,validation - short,TRUE,Android,2023-03-04,1
2023-03-04T14:29:53.658Z,7390,13,chanterelle,chanterelle,target,upper-left,5URsbe1m,validation - short,TRUE,Android,2023-03-04,1
2023-03-04T14:30:01.037Z,5612,14,ruin,ruin,target,lower-right,5URsbe1m,validation - short,TRUE,Android,2023-03-04,1
2023-03-04T14:30:06.823Z,4382,15,labyrinth,labyrinth,target,lower-left,5URsbe1m,validation - short,TRUE,Android,2023-03-04,1
2023-03-04T14:30:13.024Z,4983,16,orchid,banner,dist3,lower-right,5URsbe1m,validation - short,TRUE,Android,2023-03-04,0
2023-03-04T14:30:19.320Z,3333,17,zucchini,zucchini,target,upper-right,5URsbe1m,validation - short,TRUE,Android,2023-03-04,1
2023-03-04T14:30:26.053Z,3773,18,kayak,kayak,target,upper-left,5URsbe1m,validation - short,TRUE,Android,2023-03-04,1
2023-03-04T14:30:34.427Z,7091,19,lobster,lobster,target,upper-right,5URsbe1m,validation - short,TRUE,Android,2023-03-04,1
2023-03-04T14:30:48.034Z,12477,20,carnation,tents,dist2,lower-left,5URsbe1m,validation - short,TRUE,Android,2023-03-04,0
2023-03-04T14:30:58.707Z,7966,21,flounder,flounder,target,lower-right,5URsbe1m,validation - short,TRUE,Android,2023-03-04,1
2023-03-04T14:31:08.923Z,7641,22,cello,marshmallow,dist2,upper-right,5URsbe1m,validation - short,TRUE,Android,2023-03-04,0
2023-03-04T15:42:56.821Z,5214,1,eye,eye,target,upper-left,5yr7obiZ,validation - short,TRUE,Windows,2023-03-04,1
2023-03-04T15:43:04.626Z,3881,2,carrot,carrot,target,lower-right,5yr7obiZ,validation - short,TRUE,Windows,2023-03-04,1
2023-03-04T15:43:10.544Z,3325,3,ant,ant,target,upper-right,5yr7obiZ,validation - short,TRUE,Windows,2023-03-04,1
2023-03-04T15:43:24.343Z,11239,4,elk,skeleton,dist3,upper-right,5yr7obiZ,validation - short,TRUE,Windows,2023-03-04,0
2023-03-04T15:43:39.235Z,13033,5,choir,orchestra,dist1,lower-right,5yr7obiZ,validation - short,TRUE,Windows,2023-03-04,0
2023-03-04T15:43:45.302Z,4561,6,ventilator,ventilator,target,lower-left,5yr7obiZ,validation - short,TRUE,Windows,2023-03-04,1
2023-03-04T15:43:58.116Z,10080,7,arugula,arugula,target,lower-right,5yr7obiZ,validation - short,TRUE,Windows,2023-03-04,1
2023-03-04T15:44:02.231Z,1813,8,giraffe,giraffe,target,upper-left,5yr7obiZ,validation - short,TRUE,Windows,2023-03-04,1
2023-03-04T15:44:07.489Z,3232,9,palmtree,palmtree,target,lower-left,5yr7obiZ,validation - short,TRUE,Windows,2023-03-04,1
2023-03-04T15:44:12.852Z,2819,10,pineapple,pineapple,target,lower-right,5yr7obiZ,validation - short,TRUE,Windows,2023-03-04,1
2023-03-04T15:44:28.165Z,13050,11,ocean,pelican,dist2,lower-right,5yr7obiZ,validation - short,TRUE,Windows,2023-03-04,0
2023-03-04T15:44:44.083Z,13319,12,gazelle,gazelle,target,lower-right,5yr7obiZ,validation - short,TRUE,Windows,2023-03-04,1
2023-03-04T15:44:59.910Z,13895,13,chanterelle,chestnut,dist1,lower-right,5yr7obiZ,validation - short,TRUE,Windows,2023-03-04,0
2023-03-04T15:45:17.424Z,15459,14,ruin,ruin,target,lower-right,5yr7obiZ,validation - short,TRUE,Windows,2023-03-04,1
2023-03-04T15:45:33.058Z,14052,15,labyrinth,whirlwind,dist2,lower-right,5yr7obiZ,validation - short,TRUE,Windows,2023-03-04,0
2023-03-04T15:45:47.389Z,12606,16,orchid,shrub,dist1,upper-left,5yr7obiZ,validation - short,TRUE,Windows,2023-03-04,0
2023-03-04T15:45:55.241Z,6089,17,zucchini,zucchini,target,upper-right,5yr7obiZ,validation - short,TRUE,Windows,2023-03-04,1
2023-03-04T15:46:03.063Z,6060,18,kayak,backpack,dist2,upper-right,5yr7obiZ,validation - short,TRUE,Windows,2023-03-04,0
2023-03-04T15:46:13.711Z,8857,19,lobster,microscope,dist3,upper-left,5yr7obiZ,validation - short,TRUE,Windows,2023-03-04,0
2023-03-04T15:46:22.279Z,6678,20,carnation,violets,dist1,lower-right,5yr7obiZ,validation - short,TRUE,Windows,2023-03-04,0
2023-03-04T15:46:28.089Z,4250,21,flounder,pyramid,dist3,upper-right,5yr7obiZ,validation - short,TRUE,Windows,2023-03-04,0
2023-03-04T15:46:33.503Z,3822,22,cello,harp,dist1,lower-right,5yr7obiZ,validation - short,TRUE,Windows,2023-03-04,0
2023-03-01T14:59:24.287Z,4623,1,eye,eye,target,upper-left,6rKtgcRD,validation - short,TRUE,Windows,2023-03-01,1
2023-03-01T14:59:32.576Z,5446,2,carrot,carrot,target,lower-right,6rKtgcRD,validation - short,TRUE,Windows,2023-03-01,1
2023-03-01T14:59:44.894Z,7443,3,ant,ant,target,upper-right,6rKtgcRD,validation - short,TRUE,Windows,2023-03-01,1
2023-03-01T14:59:51.157Z,4323,4,elk,elk,target,upper-left,6rKtgcRD,validation - short,TRUE,Windows,2023-03-01,1
2023-03-01T15:00:08.017Z,4404,5,choir,choir,target,upper-right,6rKtgcRD,validation - short,TRUE,Windows,2023-03-01,1
2023-03-01T15:00:18.060Z,6127,6,ventilator,ventilator,target,lower-left,6rKtgcRD,validation - short,TRUE,Windows,2023-03-01,1
2023-03-01T15:00:25.429Z,5390,7,arugula,dracula,dist2,upper-left,6rKtgcRD,validation - short,TRUE,Windows,2023-03-01,0
2023-03-01T15:00:30.554Z,2934,8,giraffe,giraffe,target,upper-left,6rKtgcRD,validation - short,TRUE,Windows,2023-03-01,1
2023-03-01T15:00:36.268Z,4478,9,palmtree,palmtree,target,lower-left,6rKtgcRD,validation - short,TRUE,Windows,2023-03-01,1
2023-03-01T15:00:41.151Z,2824,10,pineapple,pineapple,target,lower-right,6rKtgcRD,validation - short,TRUE,Windows,2023-03-01,1
2023-03-01T15:00:54.482Z,11362,11,ocean,ocean,target,upper-left,6rKtgcRD,validation - short,TRUE,Windows,2023-03-01,1
2023-03-01T15:01:04.664Z,6919,12,gazelle,gazelle,target,lower-right,6rKtgcRD,validation - short,TRUE,Windows,2023-03-01,1
2023-03-01T15:01:16.663Z,8660,13,chanterelle,chanterelle,target,upper-left,6rKtgcRD,validation - short,TRUE,Windows,2023-03-01,1
2023-03-01T15:01:37.328Z,17808,14,ruin,ruin,target,lower-right,6rKtgcRD,validation - short,TRUE,Windows,2023-03-01,1
2023-03-01T15:01:43.381Z,4351,15,labyrinth,labyrinth,target,lower-left,6rKtgcRD,validation - short,TRUE,Windows,2023-03-01,1
2023-03-01T15:02:20.193Z,33962,16,orchid,shrub,dist1,upper-left,6rKtgcRD,validation - short,TRUE,Windows,2023-03-01,0
2023-03-01T15:02:36.874Z,7296,17,zucchini,zucchini,target,upper-right,6rKtgcRD,validation - short,TRUE,Windows,2023-03-01,1
2023-03-01T15:02:48.581Z,9691,18,kayak,kayak,target,upper-left,6rKtgcRD,validation - short,TRUE,Windows,2023-03-01,1
2023-03-01T15:02:53.865Z,3300,19,lobster,lobster,target,upper-right,6rKtgcRD,validation - short,TRUE,Windows,2023-03-01,1
2023-03-01T15:03:07.578Z,11842,20,carnation,carnation,target,upper-right,6rKtgcRD,validation - short,TRUE,Windows,2023-03-01,1
2023-03-01T15:03:38.661Z,29634,21,flounder,flounder,target,lower-right,6rKtgcRD,validation - short,TRUE,Windows,2023-03-01,1
2023-03-01T15:03:44.968Z,4008,22,cello,cello,target,lower-left,6rKtgcRD,validation - short,TRUE,Windows,2023-03-01,1
2023-03-03T08:49:52.652Z,3899,1,eye,eye,target,upper-left,6tokmK6N,validation - short,FALSE,Windows,2023-03-03,1
2023-03-03T08:50:16.088Z,4503,2,carrot,carrot,target,lower-right,6tokmK6N,validation - short,FALSE,Windows,2023-03-03,1
2023-03-03T08:50:23.210Z,3097,3,ant,ant,target,upper-right,6tokmK6N,validation - short,FALSE,Windows,2023-03-03,1
2023-03-03T08:50:33.363Z,5464,4,elk,elk,target,upper-left,6tokmK6N,validation - short,FALSE,Windows,2023-03-03,1
2023-03-03T08:50:53.070Z,14962,5,choir,orchestra,dist1,lower-right,6tokmK6N,validation - short,FALSE,Windows,2023-03-03,0
2023-03-03T08:51:01.337Z,2658,6,ventilator,ventilator,target,lower-left,6tokmK6N,validation - short,FALSE,Windows,2023-03-03,1
2023-03-03T08:51:15.046Z,7837,7,arugula,arugula,target,lower-right,6tokmK6N,validation - short,FALSE,Windows,2023-03-03,1
2023-03-03T08:51:25.441Z,5211,8,giraffe,giraffe,target,upper-left,6tokmK6N,validation - short,FALSE,Windows,2023-03-03,1
2023-03-03T08:51:35.281Z,2772,9,palmtree,palmtree,target,lower-left,6tokmK6N,validation - short,FALSE,Windows,2023-03-03,1
2023-03-03T08:51:42.172Z,2193,10,pineapple,pineapple,target,lower-right,6tokmK6N,validation - short,FALSE,Windows,2023-03-03,1
2023-03-03T08:51:48.502Z,3616,11,ocean,ocean,target,upper-left,6tokmK6N,validation - short,FALSE,Windows,2023-03-03,1
2023-03-03T08:51:59.772Z,5464,12,gazelle,dragonfly,dist2,upper-left,6tokmK6N,validation - short,FALSE,Windows,2023-03-03,0
2023-03-03T08:52:10.675Z,4688,13,chanterelle,chanterelle,target,upper-left,6tokmK6N,validation - short,FALSE,Windows,2023-03-03,1
2023-03-03T08:52:23.419Z,8548,14,ruin,ruin,target,lower-right,6tokmK6N,validation - short,FALSE,Windows,2023-03-03,1
2023-03-03T08:52:29.282Z,2637,15,labyrinth,labyrinth,target,lower-left,6tokmK6N,validation - short,FALSE,Windows,2023-03-03,1
2023-03-03T08:52:37.235Z,4155,16,orchid,orchid,target,lower-left,6tokmK6N,validation - short,FALSE,Windows,2023-03-03,1
2023-03-03T08:52:43.650Z,2937,17,zucchini,zucchini,target,upper-right,6tokmK6N,validation - short,FALSE,Windows,2023-03-03,1
2023-03-03T08:52:50.413Z,3765,18,kayak,kayak,target,upper-left,6tokmK6N,validation - short,FALSE,Windows,2023-03-03,1
2023-03-03T08:52:58.046Z,3418,19,lobster,lobster,target,upper-right,6tokmK6N,validation - short,FALSE,Windows,2023-03-03,1
2023-03-03T08:53:05.790Z,4756,20,carnation,violets,dist1,lower-right,6tokmK6N,validation - short,FALSE,Windows,2023-03-03,0
2023-03-03T08:53:16.054Z,5586,21,flounder,flounder,target,lower-right,6tokmK6N,validation - short,FALSE,Windows,2023-03-03,1
2023-03-03T08:53:24.577Z,3884,22,cello,cello,target,lower-left,6tokmK6N,validation - short,FALSE,Windows,2023-03-03,1
2023-03-02T13:15:20.899Z,3985,1,eye,eye,target,upper-left,6XwHZANx,validation - short,FALSE,Windows,2023-03-02,1
2023-03-02T13:15:27.835Z,3368,2,carrot,carrot,target,lower-right,6XwHZANx,validation - short,FALSE,Windows,2023-03-02,1
2023-03-02T13:15:32.675Z,2877,3,ant,ant,target,upper-right,6XwHZANx,validation - short,FALSE,Windows,2023-03-02,1
2023-03-02T13:15:37.395Z,3215,4,elk,elk,target,upper-left,6XwHZANx,validation - short,FALSE,Windows,2023-03-02,1
2023-03-02T13:15:42.964Z,3968,5,choir,choir,target,upper-right,6XwHZANx,validation - short,FALSE,Windows,2023-03-02,1
2023-03-02T13:15:46.299Z,2076,6,ventilator,ventilator,target,lower-left,6XwHZANx,validation - short,FALSE,Windows,2023-03-02,1
2023-03-02T13:15:51.828Z,4163,7,arugula,arugula,target,lower-right,6XwHZANx,validation - short,FALSE,Windows,2023-03-02,1
2023-03-02T13:15:55.539Z,2021,8,giraffe,giraffe,target,upper-left,6XwHZANx,validation - short,FALSE,Windows,2023-03-02,1
2023-03-02T13:15:59.907Z,3015,9,palmtree,palmtree,target,lower-left,6XwHZANx,validation - short,FALSE,Windows,2023-03-02,1
2023-03-02T13:16:04.003Z,2115,10,pineapple,pineapple,target,lower-right,6XwHZANx,validation - short,FALSE,Windows,2023-03-02,1
2023-03-02T13:16:10.428Z,4593,11,ocean,ocean,target,upper-left,6XwHZANx,validation - short,FALSE,Windows,2023-03-02,1
2023-03-02T13:16:17.701Z,5421,12,gazelle,gazelle,target,lower-right,6XwHZANx,validation - short,FALSE,Windows,2023-03-02,1
2023-03-02T13:16:25.980Z,7069,13,chanterelle,chanterelle,target,upper-left,6XwHZANx,validation - short,FALSE,Windows,2023-03-02,1
2023-03-02T13:16:32.108Z,4266,14,ruin,ruin,target,lower-right,6XwHZANx,validation - short,FALSE,Windows,2023-03-02,1
2023-03-02T13:16:35.859Z,2308,15,labyrinth,labyrinth,target,lower-left,6XwHZANx,validation - short,FALSE,Windows,2023-03-02,1
2023-03-02T13:16:39.803Z,2408,16,orchid,orchid,target,lower-left,6XwHZANx,validation - short,FALSE,Windows,2023-03-02,1
2023-03-02T13:16:44.115Z,2414,17,zucchini,zucchini,target,upper-right,6XwHZANx,validation - short,FALSE,Windows,2023-03-02,1
2023-03-02T13:16:49.323Z,2958,18,kayak,kayak,target,upper-left,6XwHZANx,validation - short,FALSE,Windows,2023-03-02,1
2023-03-02T13:16:53.955Z,2998,19,lobster,crab,dist1,lower-right,6XwHZANx,validation - short,FALSE,Windows,2023-03-02,0
2023-03-02T13:16:58.492Z,3311,20,carnation,carnation,target,upper-right,6XwHZANx,validation - short,FALSE,Windows,2023-03-02,1
2023-03-02T13:17:02.523Z,2740,21,flounder,flounder,target,lower-right,6XwHZANx,validation - short,FALSE,Windows,2023-03-02,1
2023-03-02T13:17:07.155Z,3332,22,cello,cello,target,lower-left,6XwHZANx,validation - short,FALSE,Windows,2023-03-02,1
2023-03-06T14:19:32.915Z,5209,1,eye,eye,target,upper-left,7d9Js4dN,validation - short,FALSE,Mac OS X,2023-03-06,1
2023-03-06T14:19:39.528Z,3902,2,carrot,carrot,target,lower-right,7d9Js4dN,validation - short,FALSE,Mac OS X,2023-03-06,1
2023-03-06T14:19:46.634Z,5018,3,ant,ant,target,upper-right,7d9Js4dN,validation - short,FALSE,Mac OS X,2023-03-06,1
2023-03-06T14:19:53.758Z,3754,4,elk,elk,target,upper-left,7d9Js4dN,validation - short,FALSE,Mac OS X,2023-03-06,1
2023-03-06T14:19:59.132Z,3682,5,choir,choir,target,upper-right,7d9Js4dN,validation - short,FALSE,Mac OS X,2023-03-06,1
2023-03-06T14:20:03.994Z,3036,6,ventilator,ventilator,target,lower-left,7d9Js4dN,validation - short,FALSE,Mac OS X,2023-03-06,1
2023-03-06T14:20:11.078Z,5218,7,arugula,arugula,target,lower-right,7d9Js4dN,validation - short,FALSE,Mac OS X,2023-03-06,1
2023-03-06T14:20:16.298Z,3357,8,giraffe,giraffe,target,upper-left,7d9Js4dN,validation - short,FALSE,Mac OS X,2023-03-06,1
2023-03-06T14:20:21.289Z,3133,9,palmtree,palmtree,target,lower-left,7d9Js4dN,validation - short,FALSE,Mac OS X,2023-03-06,1
2023-03-06T14:20:25.356Z,2506,10,pineapple,pineapple,target,lower-right,7d9Js4dN,validation - short,FALSE,Mac OS X,2023-03-06,1
2023-03-06T14:20:32.007Z,5094,11,ocean,ocean,target,upper-left,7d9Js4dN,validation - short,FALSE,Mac OS X,2023-03-06,1
2023-03-06T14:20:40.057Z,6200,12,gazelle,gazelle,target,lower-right,7d9Js4dN,validation - short,FALSE,Mac OS X,2023-03-06,1
2023-03-06T14:20:48.966Z,6981,13,chanterelle,chanterelle,target,upper-left,7d9Js4dN,validation - short,FALSE,Mac OS X,2023-03-06,1
2023-03-06T14:20:58.090Z,7240,14,ruin,ruin,target,lower-right,7d9Js4dN,validation - short,FALSE,Mac OS X,2023-03-06,1
2023-03-06T14:21:02.568Z,2838,15,labyrinth,labyrinth,target,lower-left,7d9Js4dN,validation - short,FALSE,Mac OS X,2023-03-06,1
2023-03-06T14:21:08.048Z,3563,16,orchid,orchid,target,lower-left,7d9Js4dN,validation - short,FALSE,Mac OS X,2023-03-06,1
2023-03-06T14:21:12.768Z,3270,17,zucchini,zucchini,target,upper-right,7d9Js4dN,validation - short,FALSE,Mac OS X,2023-03-06,1
2023-03-06T14:21:18.760Z,3878,18,kayak,kayak,target,upper-left,7d9Js4dN,validation - short,FALSE,Mac OS X,2023-03-06,1
2023-03-06T14:21:24.032Z,3647,19,lobster,lobster,target,upper-right,7d9Js4dN,validation - short,FALSE,Mac OS X,2023-03-06,1
2023-03-06T14:21:37.605Z,11548,20,carnation,carnation,target,upper-right,7d9Js4dN,validation - short,FALSE,Mac OS X,2023-03-06,1
2023-03-06T14:21:44.083Z,4064,21,flounder,flounder,target,lower-right,7d9Js4dN,validation - short,FALSE,Mac OS X,2023-03-06,1
2023-03-06T14:21:57.972Z,12327,22,cello,marshmallow,dist2,upper-right,7d9Js4dN,validation - short,FALSE,Mac OS X,2023-03-06,0
2023-03-06T16:48:14.094Z,3607,1,eye,eye,target,upper-left,7m6LAe9Q,validation - short,TRUE,Windows,2023-03-06,1
2023-03-06T16:48:24.645Z,6972,2,carrot,carrot,target,lower-right,7m6LAe9Q,validation - short,TRUE,Windows,2023-03-06,1
2023-03-06T16:48:29.318Z,3257,3,ant,ant,target,upper-right,7m6LAe9Q,validation - short,TRUE,Windows,2023-03-06,1
2023-03-06T16:48:42.889Z,12125,4,elk,elk,target,upper-left,7m6LAe9Q,validation - short,TRUE,Windows,2023-03-06,1
2023-03-06T16:48:54.801Z,9230,5,choir,choir,target,upper-right,7m6LAe9Q,validation - short,TRUE,Windows,2023-03-06,1
2023-03-06T16:49:04.095Z,2653,6,ventilator,ventilator,target,lower-left,7m6LAe9Q,validation - short,TRUE,Windows,2023-03-06,1
2023-03-06T16:49:18.708Z,12961,7,arugula,arugula,target,lower-right,7m6LAe9Q,validation - short,TRUE,Windows,2023-03-06,1
2023-03-06T16:49:22.576Z,2229,8,giraffe,giraffe,target,upper-left,7m6LAe9Q,validation - short,TRUE,Windows,2023-03-06,1
2023-03-06T16:49:25.980Z,1935,9,palmtree,palmtree,target,lower-left,7m6LAe9Q,validation - short,TRUE,Windows,2023-03-06,1
2023-03-06T16:49:29.148Z,2064,10,pineapple,pineapple,target,lower-right,7m6LAe9Q,validation - short,TRUE,Windows,2023-03-06,1
2023-03-06T16:49:36.670Z,6572,11,ocean,ocean,target,upper-left,7m6LAe9Q,validation - short,TRUE,Windows,2023-03-06,1
2023-03-06T16:49:42.483Z,4755,12,gazelle,gazelle,target,lower-right,7m6LAe9Q,validation - short,TRUE,Windows,2023-03-06,1
2023-03-06T16:49:49.034Z,5373,13,chanterelle,chanterelle,target,upper-left,7m6LAe9Q,validation - short,TRUE,Windows,2023-03-06,1
2023-03-06T16:49:54.750Z,4589,14,ruin,ruin,target,lower-right,7m6LAe9Q,validation - short,TRUE,Windows,2023-03-06,1
2023-03-06T16:49:58.716Z,2837,15,labyrinth,labyrinth,target,lower-left,7m6LAe9Q,validation - short,TRUE,Windows,2023-03-06,1
2023-03-06T16:50:10.998Z,10730,16,orchid,shrub,dist1,upper-left,7m6LAe9Q,validation - short,TRUE,Windows,2023-03-06,0
2023-03-06T16:50:18.365Z,3295,17,zucchini,zucchini,target,upper-right,7m6LAe9Q,validation - short,TRUE,Windows,2023-03-06,1
2023-03-06T16:50:24.139Z,4762,18,kayak,kayak,target,upper-left,7m6LAe9Q,validation - short,TRUE,Windows,2023-03-06,1
2023-03-06T16:50:27.251Z,2139,19,lobster,lobster,target,upper-right,7m6LAe9Q,validation - short,TRUE,Windows,2023-03-06,1
2023-03-06T16:50:31.215Z,3047,20,carnation,carnation,target,upper-right,7m6LAe9Q,validation - short,TRUE,Windows,2023-03-06,1
2023-03-06T16:50:36.954Z,4624,21,flounder,flounder,target,lower-right,7m6LAe9Q,validation - short,TRUE,Windows,2023-03-06,1
2023-03-06T16:50:41.283Z,3269,22,cello,cello,target,lower-left,7m6LAe9Q,validation - short,TRUE,Windows,2023-03-06,1
2023-03-05T17:22:49.064Z,6462,1,eye,eye,target,upper-left,7PA6qG6d,validation - short,TRUE,Mac OS X,2023-03-05,1
2023-03-05T17:22:54.819Z,3611,2,carrot,carrot,target,lower-right,7PA6qG6d,validation - short,TRUE,Mac OS X,2023-03-05,1
2023-03-05T17:22:59.207Z,2858,3,ant,ant,target,upper-right,7PA6qG6d,validation - short,TRUE,Mac OS X,2023-03-05,1
2023-03-05T17:23:03.483Z,2905,4,elk,elk,target,upper-left,7PA6qG6d,validation - short,TRUE,Mac OS X,2023-03-05,1
2023-03-05T17:23:14.443Z,9623,5,choir,choir,target,upper-right,7PA6qG6d,validation - short,TRUE,Mac OS X,2023-03-05,1
2023-03-05T17:23:20.950Z,4188,6,ventilator,ventilator,target,lower-left,7PA6qG6d,validation - short,TRUE,Mac OS X,2023-03-05,1
2023-03-05T17:23:33.331Z,11003,7,arugula,dracula,dist2,upper-left,7PA6qG6d,validation - short,TRUE,Mac OS X,2023-03-05,0
2023-03-05T17:23:37.229Z,1967,8,giraffe,giraffe,target,upper-left,7PA6qG6d,validation - short,TRUE,Mac OS X,2023-03-05,1
2023-03-05T17:23:43.896Z,5361,9,palmtree,palmtree,target,lower-left,7PA6qG6d,validation - short,TRUE,Mac OS X,2023-03-05,1
2023-03-05T17:23:49.066Z,3464,10,pineapple,pineapple,target,lower-right,7PA6qG6d,validation - short,TRUE,Mac OS X,2023-03-05,1
2023-03-05T17:23:58.134Z,7221,11,ocean,ocean,target,upper-left,7PA6qG6d,validation - short,TRUE,Mac OS X,2023-03-05,1
2023-03-05T17:24:21.466Z,20909,12,gazelle,gazelle,target,lower-right,7PA6qG6d,validation - short,TRUE,Mac OS X,2023-03-05,1
2023-03-05T17:24:32.305Z,8875,13,chanterelle,chanterelle,target,upper-left,7PA6qG6d,validation - short,TRUE,Mac OS X,2023-03-05,1
2023-03-05T17:24:43.529Z,9115,14,ruin,ruin,target,lower-right,7PA6qG6d,validation - short,TRUE,Mac OS X,2023-03-05,1
2023-03-05T17:24:49.339Z,3599,15,labyrinth,labyrinth,target,lower-left,7PA6qG6d,validation - short,TRUE,Mac OS X,2023-03-05,1
2023-03-05T17:24:56.569Z,5150,16,orchid,orchid,target,lower-left,7PA6qG6d,validation - short,TRUE,Mac OS X,2023-03-05,1
2023-03-05T17:25:01.298Z,2633,17,zucchini,zucchini,target,upper-right,7PA6qG6d,validation - short,TRUE,Mac OS X,2023-03-05,1
2023-03-05T17:25:24.583Z,21728,18,kayak,boomerang,dist3,lower-right,7PA6qG6d,validation - short,TRUE,Mac OS X,2023-03-05,0
2023-03-05T17:25:29.584Z,2962,19,lobster,lobster,target,upper-right,7PA6qG6d,validation - short,TRUE,Mac OS X,2023-03-05,1
2023-03-05T17:25:37.294Z,6411,20,carnation,violets,dist1,lower-right,7PA6qG6d,validation - short,TRUE,Mac OS X,2023-03-05,0
2023-03-05T17:25:41.107Z,2475,21,flounder,flounder,target,lower-right,7PA6qG6d,validation - short,TRUE,Mac OS X,2023-03-05,1
2023-03-05T17:25:44.241Z,1952,22,cello,cello,target,lower-left,7PA6qG6d,validation - short,TRUE,Mac OS X,2023-03-05,1
2023-03-02T17:45:26.751Z,3084,1,eye,eye,target,upper-left,7QpFfKxJ,validation - short,TRUE,Mac OS X,2023-03-02,1
2023-03-02T17:45:36.517Z,3327,2,carrot,carrot,target,lower-right,7QpFfKxJ,validation - short,TRUE,Mac OS X,2023-03-02,1
2023-03-02T17:45:41.184Z,2374,3,ant,ant,target,upper-right,7QpFfKxJ,validation - short,TRUE,Mac OS X,2023-03-02,1
2023-03-02T17:45:45.625Z,2993,4,elk,elk,target,upper-left,7QpFfKxJ,validation - short,TRUE,Mac OS X,2023-03-02,1
2023-03-02T17:45:51.350Z,3953,5,choir,choir,target,upper-right,7QpFfKxJ,validation - short,TRUE,Mac OS X,2023-03-02,1
2023-03-02T17:45:56.091Z,2416,6,ventilator,ventilator,target,lower-left,7QpFfKxJ,validation - short,TRUE,Mac OS X,2023-03-02,1
2023-03-02T17:46:00.658Z,3112,7,arugula,brusselsprouts,dist1,lower-left,7QpFfKxJ,validation - short,TRUE,Mac OS X,2023-03-02,0
2023-03-02T17:46:09.974Z,7510,8,giraffe,giraffe,target,upper-left,7QpFfKxJ,validation - short,TRUE,Mac OS X,2023-03-02,1
2023-03-02T17:46:14.214Z,2484,9,palmtree,palmtree,target,lower-left,7QpFfKxJ,validation - short,TRUE,Mac OS X,2023-03-02,1
2023-03-02T17:46:17.790Z,1946,10,pineapple,pineapple,target,lower-right,7QpFfKxJ,validation - short,TRUE,Mac OS X,2023-03-02,1
2023-03-02T17:46:23.455Z,4586,11,ocean,ocean,target,upper-left,7QpFfKxJ,validation - short,TRUE,Mac OS X,2023-03-02,1
2023-03-02T17:46:27.839Z,3095,12,gazelle,gazelle,target,lower-right,7QpFfKxJ,validation - short,TRUE,Mac OS X,2023-03-02,1
2023-03-02T17:46:46.562Z,17176,13,chanterelle,chanterelle,target,upper-left,7QpFfKxJ,validation - short,TRUE,Mac OS X,2023-03-02,1
2023-03-02T17:46:52.654Z,4287,14,ruin,ruin,target,lower-right,7QpFfKxJ,validation - short,TRUE,Mac OS X,2023-03-02,1
2023-03-02T17:46:57.436Z,3221,15,labyrinth,labyrinth,target,lower-left,7QpFfKxJ,validation - short,TRUE,Mac OS X,2023-03-02,1
2023-03-02T17:47:04.166Z,5426,16,orchid,orchid,target,lower-left,7QpFfKxJ,validation - short,TRUE,Mac OS X,2023-03-02,1
2023-03-02T17:47:07.886Z,1921,17,zucchini,zucchini,target,upper-right,7QpFfKxJ,validation - short,TRUE,Mac OS X,2023-03-02,1
2023-03-02T17:47:12.026Z,2488,18,kayak,kayak,target,upper-left,7QpFfKxJ,validation - short,TRUE,Mac OS X,2023-03-02,1
2023-03-02T17:47:15.334Z,1746,19,lobster,lobster,target,upper-right,7QpFfKxJ,validation - short,TRUE,Mac OS X,2023-03-02,1
2023-03-02T17:47:20.101Z,2715,20,carnation,carnation,target,upper-right,7QpFfKxJ,validation - short,TRUE,Mac OS X,2023-03-02,1
2023-03-02T17:47:26.351Z,2357,21,flounder,flounder,target,lower-right,7QpFfKxJ,validation - short,TRUE,Mac OS X,2023-03-02,1
2023-03-02T17:47:29.956Z,2055,22,cello,cello,target,lower-left,7QpFfKxJ,validation - short,TRUE,Mac OS X,2023-03-02,1
2023-03-05T11:10:12.980Z,3981,1,eye,eye,target,upper-left,8BF2TQx3,validation - short,TRUE,Android,2023-03-05,1
2023-03-05T11:10:20.152Z,3411,2,carrot,carrot,target,lower-right,8BF2TQx3,validation - short,TRUE,Android,2023-03-05,1
2023-03-05T11:10:24.847Z,3113,3,ant,ant,target,upper-right,8BF2TQx3,validation - short,TRUE,Android,2023-03-05,1
2023-03-05T11:10:33.945Z,5007,4,elk,elk,target,upper-left,8BF2TQx3,validation - short,TRUE,Android,2023-03-05,1
2023-03-05T11:10:39.922Z,4026,5,choir,pipe,dist2,upper-left,8BF2TQx3,validation - short,TRUE,Android,2023-03-05,0
2023-03-05T11:10:51.863Z,4642,6,ventilator,ventilator,target,lower-left,8BF2TQx3,validation - short,TRUE,Android,2023-03-05,1
2023-03-05T11:11:11.364Z,17913,7,arugula,arugula,target,lower-right,8BF2TQx3,validation - short,TRUE,Android,2023-03-05,1
2023-03-05T11:11:16.744Z,3745,8,giraffe,giraffe,target,upper-left,8BF2TQx3,validation - short,TRUE,Android,2023-03-05,1
2023-03-05T11:11:25.845Z,7692,9,palmtree,cactus,dist1,upper-right,8BF2TQx3,validation - short,TRUE,Android,2023-03-05,0
2023-03-05T11:11:29.914Z,2617,10,pineapple,pineapple,target,lower-right,8BF2TQx3,validation - short,TRUE,Android,2023-03-05,1
2023-03-05T11:11:41.219Z,10060,11,ocean,ocean,target,upper-left,8BF2TQx3,validation - short,TRUE,Android,2023-03-05,1
2023-03-05T11:11:46.825Z,4057,12,gazelle,dragonfly,dist2,upper-left,8BF2TQx3,validation - short,TRUE,Android,2023-03-05,0
2023-03-05T11:11:53.009Z,4849,13,chanterelle,butterfly,dist2,lower-left,8BF2TQx3,validation - short,TRUE,Android,2023-03-05,0
2023-03-05T11:12:00.279Z,5966,14,ruin,ruin,target,lower-right,8BF2TQx3,validation - short,TRUE,Android,2023-03-05,1
2023-03-05T11:12:06.236Z,4652,15,labyrinth,whirlwind,dist2,lower-right,8BF2TQx3,validation - short,TRUE,Android,2023-03-05,0
2023-03-05T11:12:11.596Z,4025,16,orchid,banner,dist3,lower-right,8BF2TQx3,validation - short,TRUE,Android,2023-03-05,0
2023-03-05T11:12:21.652Z,6483,17,zucchini,bikini,dist2,upper-left,8BF2TQx3,validation - short,TRUE,Android,2023-03-05,0
2023-03-05T11:12:28.429Z,3286,18,kayak,boomerang,dist3,lower-right,8BF2TQx3,validation - short,TRUE,Android,2023-03-05,0
2023-03-05T11:12:40.153Z,10341,19,lobster,microscope,dist3,upper-left,8BF2TQx3,validation - short,TRUE,Android,2023-03-05,0
2023-03-05T11:12:45.183Z,3552,20,carnation,carnation,target,upper-right,8BF2TQx3,validation - short,TRUE,Android,2023-03-05,1
2023-03-05T11:12:52.347Z,5824,21,flounder,flounder,target,lower-right,8BF2TQx3,validation - short,TRUE,Android,2023-03-05,1
2023-03-05T11:12:58.609Z,4934,22,cello,harp,dist1,lower-right,8BF2TQx3,validation - short,TRUE,Android,2023-03-05,0
2023-03-01T18:45:02.522Z,9449,1,eye,eye,target,upper-left,8bSBCphi,validation - short,TRUE,Windows,2023-03-01,1
2023-03-01T18:45:08.510Z,2994,2,carrot,carrot,target,lower-right,8bSBCphi,validation - short,TRUE,Windows,2023-03-01,1
2023-03-01T18:45:12.880Z,2653,3,ant,ant,target,upper-right,8bSBCphi,validation - short,TRUE,Windows,2023-03-01,1
2023-03-01T18:45:19.484Z,4800,4,elk,elk,target,upper-left,8bSBCphi,validation - short,TRUE,Windows,2023-03-01,1
2023-03-01T18:45:25.283Z,4040,5,choir,choir,target,upper-right,8bSBCphi,validation - short,TRUE,Windows,2023-03-01,1
2023-03-01T18:45:31.284Z,4224,6,ventilator,ventilator,target,lower-left,8bSBCphi,validation - short,TRUE,Windows,2023-03-01,1
2023-03-01T18:45:37.258Z,4334,7,arugula,dracula,dist2,upper-left,8bSBCphi,validation - short,TRUE,Windows,2023-03-01,0
2023-03-01T18:45:44.688Z,5210,8,giraffe,giraffe,target,upper-left,8bSBCphi,validation - short,TRUE,Windows,2023-03-01,1
2023-03-01T18:45:48.931Z,2605,9,palmtree,palmtree,target,lower-left,8bSBCphi,validation - short,TRUE,Windows,2023-03-01,1
2023-03-01T18:45:53.039Z,2388,10,pineapple,pineapple,target,lower-right,8bSBCphi,validation - short,TRUE,Windows,2023-03-01,1
2023-03-01T18:46:12.443Z,17737,11,ocean,ocean,target,upper-left,8bSBCphi,validation - short,TRUE,Windows,2023-03-01,1
2023-03-01T18:46:19.473Z,5289,12,gazelle,gazelle,target,lower-right,8bSBCphi,validation - short,TRUE,Windows,2023-03-01,1
2023-03-01T18:46:24.336Z,3125,13,chanterelle,chanterelle,target,upper-left,8bSBCphi,validation - short,TRUE,Windows,2023-03-01,1
2023-03-01T18:46:29.439Z,3500,14,ruin,ruin,target,lower-right,8bSBCphi,validation - short,TRUE,Windows,2023-03-01,1
2023-03-01T18:46:33.461Z,2381,15,labyrinth,labyrinth,target,lower-left,8bSBCphi,validation - short,TRUE,Windows,2023-03-01,1
2023-03-01T18:46:40.071Z,5644,16,orchid,orchid,target,lower-left,8bSBCphi,validation - short,TRUE,Windows,2023-03-01,1
2023-03-01T18:46:45.047Z,3332,17,zucchini,zucchini,target,upper-right,8bSBCphi,validation - short,TRUE,Windows,2023-03-01,1
2023-03-01T18:46:54.511Z,7820,18,kayak,kayak,target,upper-left,8bSBCphi,validation - short,TRUE,Windows,2023-03-01,1
2023-03-01T18:47:00.884Z,4401,19,lobster,lobster,target,upper-right,8bSBCphi,validation - short,TRUE,Windows,2023-03-01,1
2023-03-01T18:47:05.497Z,3077,20,carnation,violets,dist1,lower-right,8bSBCphi,validation - short,TRUE,Windows,2023-03-01,0
2023-03-01T18:47:16.989Z,9161,21,flounder,flounder,target,lower-right,8bSBCphi,validation - short,TRUE,Windows,2023-03-01,1
2023-03-01T18:47:21.884Z,3368,22,cello,cello,target,lower-left,8bSBCphi,validation - short,TRUE,Windows,2023-03-01,1
2023-03-05T18:59:25.351Z,4019,1,eye,eye,target,upper-left,8DkEKkAT,validation - short,TRUE,Android,2023-03-05,1
2023-03-05T18:59:32.701Z,4081,2,carrot,carrot,target,lower-right,8DkEKkAT,validation - short,TRUE,Android,2023-03-05,1
2023-03-05T18:59:36.727Z,2683,3,ant,ant,target,upper-right,8DkEKkAT,validation - short,TRUE,Android,2023-03-05,1
2023-03-05T18:59:41.107Z,3324,4,elk,elk,target,upper-left,8DkEKkAT,validation - short,TRUE,Android,2023-03-05,1
2023-03-05T19:00:32.899Z,43383,5,choir,orchestra,dist1,lower-right,8DkEKkAT,validation - short,TRUE,Android,2023-03-05,0
2023-03-05T19:00:43.127Z,8083,6,ventilator,ventilator,target,lower-left,8DkEKkAT,validation - short,TRUE,Android,2023-03-05,1
2023-03-05T19:00:50.489Z,5773,7,arugula,dracula,dist2,upper-left,8DkEKkAT,validation - short,TRUE,Android,2023-03-05,0
2023-03-05T19:00:55.131Z,2104,8,giraffe,giraffe,target,upper-left,8DkEKkAT,validation - short,TRUE,Android,2023-03-05,1
2023-03-05T19:01:01.909Z,5124,9,palmtree,palmtree,target,lower-left,8DkEKkAT,validation - short,TRUE,Android,2023-03-05,1
2023-03-05T19:01:05.250Z,2282,10,pineapple,pineapple,target,lower-right,8DkEKkAT,validation - short,TRUE,Android,2023-03-05,1
2023-03-05T19:01:13.219Z,6725,11,ocean,river,dist1,lower-left,8DkEKkAT,validation - short,TRUE,Android,2023-03-05,0
2023-03-05T19:01:21.433Z,6329,12,gazelle,gazelle,target,lower-right,8DkEKkAT,validation - short,TRUE,Android,2023-03-05,1
2023-03-05T19:01:29.314Z,6870,13,chanterelle,chanterelle,target,upper-left,8DkEKkAT,validation - short,TRUE,Android,2023-03-05,1
2023-03-05T19:01:44.985Z,13885,14,ruin,ruin,target,lower-right,8DkEKkAT,validation - short,TRUE,Android,2023-03-05,1
2023-03-05T19:02:07.323Z,21143,15,labyrinth,labyrinth,target,lower-left,8DkEKkAT,validation - short,TRUE,Android,2023-03-05,1
2023-03-05T19:02:17.015Z,7769,16,orchid,banner,dist3,lower-right,8DkEKkAT,validation - short,TRUE,Android,2023-03-05,0
2023-03-05T19:02:25.893Z,7840,17,zucchini,zucchini,target,upper-right,8DkEKkAT,validation - short,TRUE,Android,2023-03-05,1
2023-03-05T19:02:37.730Z,7517,18,kayak,boomerang,dist3,lower-right,8DkEKkAT,validation - short,TRUE,Android,2023-03-05,0
2023-03-05T19:03:19.183Z,39690,19,lobster,lobster,target,upper-right,8DkEKkAT,validation - short,TRUE,Android,2023-03-05,1
2023-03-05T19:03:35.954Z,6822,20,carnation,compass,dist3,upper-left,8DkEKkAT,validation - short,TRUE,Android,2023-03-05,0
2023-03-05T19:03:42.430Z,5363,21,flounder,flounder,target,lower-right,8DkEKkAT,validation - short,TRUE,Android,2023-03-05,1
2023-03-05T19:04:24.072Z,40724,22,cello,marshmallow,dist2,upper-right,8DkEKkAT,validation - short,TRUE,Android,2023-03-05,0
2023-03-05T15:17:58.403Z,8459,1,eye,eye,target,upper-left,8Ne66pBV,validation - short,TRUE,iOS,2023-03-05,1
2023-03-05T15:18:07.112Z,4988,2,carrot,carrot,target,lower-right,8Ne66pBV,validation - short,TRUE,iOS,2023-03-05,1
2023-03-05T15:18:14.280Z,4558,3,ant,ant,target,upper-right,8Ne66pBV,validation - short,TRUE,iOS,2023-03-05,1
2023-03-05T15:18:26.425Z,10132,4,elk,elk,target,upper-left,8Ne66pBV,validation - short,TRUE,iOS,2023-03-05,1
2023-03-05T15:18:35.839Z,7484,5,choir,choir,target,upper-right,8Ne66pBV,validation - short,TRUE,iOS,2023-03-05,1
2023-03-05T15:18:42.109Z,4305,6,ventilator,ventilator,target,lower-left,8Ne66pBV,validation - short,TRUE,iOS,2023-03-05,1
2023-03-05T15:18:59.134Z,15146,7,arugula,arugula,target,lower-right,8Ne66pBV,validation - short,TRUE,iOS,2023-03-05,1
2023-03-05T15:19:03.918Z,3228,8,giraffe,giraffe,target,upper-left,8Ne66pBV,validation - short,TRUE,iOS,2023-03-05,1
2023-03-05T15:19:19.019Z,13430,9,palmtree,palmtree,target,lower-left,8Ne66pBV,validation - short,TRUE,iOS,2023-03-05,1
2023-03-05T15:19:26.061Z,5687,10,pineapple,pineapple,target,lower-right,8Ne66pBV,validation - short,TRUE,iOS,2023-03-05,1
2023-03-05T15:19:39.973Z,12480,11,ocean,ocean,target,upper-left,8Ne66pBV,validation - short,TRUE,iOS,2023-03-05,1
2023-03-05T15:20:01.217Z,19174,12,gazelle,dragonfly,dist2,upper-left,8Ne66pBV,validation - short,TRUE,iOS,2023-03-05,0
2023-03-05T15:20:14.174Z,11830,13,chanterelle,chestnut,dist1,lower-right,8Ne66pBV,validation - short,TRUE,iOS,2023-03-05,0
2023-03-05T15:20:38.720Z,22304,14,ruin,fortress,dist1,upper-right,8Ne66pBV,validation - short,TRUE,iOS,2023-03-05,0
2023-03-05T15:20:55.661Z,15632,15,labyrinth,labyrinth,target,lower-left,8Ne66pBV,validation - short,TRUE,iOS,2023-03-05,1
2023-03-05T15:21:10.036Z,12733,16,orchid,orchid,target,lower-left,8Ne66pBV,validation - short,TRUE,iOS,2023-03-05,1
2023-03-05T15:21:21.822Z,10622,17,zucchini,zucchini,target,upper-right,8Ne66pBV,validation - short,TRUE,iOS,2023-03-05,1
2023-03-05T15:21:34.762Z,11328,18,kayak,kayak,target,upper-left,8Ne66pBV,validation - short,TRUE,iOS,2023-03-05,1
2023-03-05T15:21:56.960Z,21101,19,lobster,lobster,target,upper-right,8Ne66pBV,validation - short,TRUE,iOS,2023-03-05,1
2023-03-05T15:22:14.497Z,13664,20,carnation,violets,dist1,lower-right,8Ne66pBV,validation - short,TRUE,iOS,2023-03-05,0
2023-03-05T15:22:40.312Z,24724,21,flounder,orca,dist1,lower-left,8Ne66pBV,validation - short,TRUE,iOS,2023-03-05,0
2023-03-05T15:23:07.477Z,26187,22,cello,marshmallow,dist2,upper-right,8Ne66pBV,validation - short,TRUE,iOS,2023-03-05,0
2023-03-01T15:35:28.395Z,44159,1,eye,eye,target,upper-left,8QY3biYo,validation - short,FALSE,Windows,2023-03-01,1
2023-03-01T15:35:39.773Z,6980,2,carrot,carrot,target,lower-right,8QY3biYo,validation - short,FALSE,Windows,2023-03-01,1
2023-03-01T15:36:07.691Z,24903,3,ant,ant,target,upper-right,8QY3biYo,validation - short,FALSE,Windows,2023-03-01,1
2023-03-01T15:36:22.204Z,12314,4,elk,elk,target,upper-left,8QY3biYo,validation - short,FALSE,Windows,2023-03-01,1
2023-03-01T15:36:45.193Z,19645,5,choir,choir,target,upper-right,8QY3biYo,validation - short,FALSE,Windows,2023-03-01,1
2023-03-01T15:36:59.556Z,7756,6,ventilator,ventilator,target,lower-left,8QY3biYo,validation - short,FALSE,Windows,2023-03-01,1
2023-03-01T15:37:14.846Z,10155,7,arugula,arugula,target,lower-right,8QY3biYo,validation - short,FALSE,Windows,2023-03-01,1
2023-03-01T15:37:25.933Z,7397,8,giraffe,giraffe,target,upper-left,8QY3biYo,validation - short,FALSE,Windows,2023-03-01,1
2023-03-01T15:37:34.095Z,5094,9,palmtree,palmtree,target,lower-left,8QY3biYo,validation - short,FALSE,Windows,2023-03-01,1
2023-03-01T15:37:43.627Z,6830,10,pineapple,pineapple,target,lower-right,8QY3biYo,validation - short,FALSE,Windows,2023-03-01,1
2023-03-01T15:38:01.267Z,12085,11,ocean,ocean,target,upper-left,8QY3biYo,validation - short,FALSE,Windows,2023-03-01,1
2023-03-01T15:38:21.911Z,15929,12,gazelle,gazelle,target,lower-right,8QY3biYo,validation - short,FALSE,Windows,2023-03-01,1
2023-03-01T15:38:39.302Z,12979,13,chanterelle,chanterelle,target,upper-left,8QY3biYo,validation - short,FALSE,Windows,2023-03-01,1
