timestamp,responseTime,trial,targetWord,chosenWord,chosenCategory,chosenPosition,subjID,order,touchscreen,os,test_day,correct
2023-03-01T19:51:22.771Z,5722,1,eye,eye,target,upper-left,1c8ao8Zt,validation - short,FALSE,Mac OS X,2023-03-01,1
2023-03-01T19:51:29.470Z,4238,2,carrot,carrot,target,lower-right,1c8ao8Zt,validation - short,FALSE,Mac OS X,2023-03-01,1
2023-03-01T19:51:37.337Z,6609,3,ant,ant,target,upper-right,1c8ao8Zt,validation - short,FALSE,Mac OS X,2023-03-01,1
2023-03-01T19:51:43.253Z,4067,4,elk,elk,target,upper-left,1c8ao8Zt,validation - short,FALSE,Mac OS X,2023-03-01,1
2023-03-01T19:51:48.153Z,3326,5,choir,choir,target,upper-right,1c8ao8Zt,validation - short,FALSE,Mac OS X,2023-03-01,1
2023-03-01T19:51:52.803Z,2926,6,ventilator,ventilator,target,lower-left,1c8ao8Zt,validation - short,FALSE,Mac OS X,2023-03-01,1
2023-03-01T19:51:57.452Z,3258,7,arugula,dracula,dist2,upper-left,1c8ao8Zt,validation - short,FALSE,Mac OS X,2023-03-01,0
2023-03-01T19:52:01.736Z,2858,8,giraffe,giraffe,target,upper-left,1c8ao8Zt,validation - short,FALSE,Mac OS X,2023-03-01,1
2023-03-01T19:52:05.836Z,2825,9,palmtree,palmtree,target,lower-left,1c8ao8Zt,validation - short,FALSE,Mac OS X,2023-03-01,1
2023-03-01T19:52:09.769Z,2525,10,pineapple,pineapple,target,lower-right,1c8ao8Zt,validation - short,FALSE,Mac OS X,2023-03-01,1
2023-03-01T19:52:15.019Z,3891,11,ocean,ocean,target,upper-left,1c8ao8Zt,validation - short,FALSE,Mac OS X,2023-03-01,1
2023-03-01T19:52:20.036Z,3652,12,gazelle,gazelle,target,lower-right,1c8ao8Zt,validation - short,FALSE,Mac OS X,2023-03-01,1
2023-03-01T19:52:26.303Z,4811,13,chanterelle,chanterelle,target,upper-left,1c8ao8Zt,validation - short,FALSE,Mac OS X,2023-03-01,1
2023-03-01T19:52:31.886Z,4357,14,ruin,ruin,target,lower-right,1c8ao8Zt,validation - short,FALSE,Mac OS X,2023-03-01,1
2023-03-01T19:52:35.587Z,2460,15,labyrinth,labyrinth,target,lower-left,1c8ao8Zt,validation - short,FALSE,Mac OS X,2023-03-01,1
2023-03-01T19:52:40.120Z,3294,16,orchid,orchid,target,lower-left,1c8ao8Zt,validation - short,FALSE,Mac OS X,2023-03-01,1
2023-03-01T19:52:44.202Z,2875,17,zucchini,zucchini,target,upper-right,1c8ao8Zt,validation - short,FALSE,Mac OS X,2023-03-01,1
2023-03-01T19:52:48.104Z,2702,18,kayak,kayak,target,upper-left,1c8ao8Zt,validation - short,FALSE,Mac OS X,2023-03-01,1
2023-03-01T19:52:52.169Z,2555,19,lobster,lobster,target,upper-right,1c8ao8Zt,validation - short,FALSE,Mac OS X,2023-03-01,1
2023-03-01T19:52:59.252Z,5768,20,carnation,violets,dist1,lower-right,1c8ao8Zt,validation - short,FALSE,Mac OS X,2023-03-01,0
2023-03-01T19:53:03.203Z,2643,21,flounder,flounder,target,lower-right,1c8ao8Zt,validation - short,FALSE,Mac OS X,2023-03-01,1
2023-03-01T19:53:17.102Z,12759,22,cello,marshmallow,dist2,upper-right,1c8ao8Zt,validation - short,FALSE,Mac OS X,2023-03-01,0
2023-03-01T18:42:07.640Z,35711,1,eye,eye,target,upper-left,1m11RBXv,validation - short,TRUE,Android,2023-03-01,1
2023-03-01T18:42:17.570Z,6158,2,carrot,carrot,target,lower-right,1m11RBXv,validation - short,TRUE,Android,2023-03-01,1
2023-03-01T18:42:26.454Z,4630,3,ant,ant,target,upper-right,1m11RBXv,validation - short,TRUE,Android,2023-03-01,1
2023-03-01T18:42:33.528Z,4370,4,elk,elk,target,upper-left,1m11RBXv,validation - short,TRUE,Android,2023-03-01,1
2023-03-01T18:42:41.565Z,5241,5,choir,pipe,dist2,upper-left,1m11RBXv,validation - short,TRUE,Android,2023-03-01,0
2023-03-01T18:42:48.783Z,3419,6,ventilator,ventilator,target,lower-left,1m11RBXv,validation - short,TRUE,Android,2023-03-01,1
2023-03-01T18:43:11.371Z,14146,7,arugula,arugula,target,lower-right,1m11RBXv,validation - short,TRUE,Android,2023-03-01,1
2023-03-01T18:43:24.901Z,5174,8,giraffe,giraffe,target,upper-left,1m11RBXv,validation - short,TRUE,Android,2023-03-01,1
2023-03-01T18:43:32.244Z,4344,9,palmtree,palmtree,target,lower-left,1m11RBXv,validation - short,TRUE,Android,2023-03-01,1
2023-03-01T18:43:40.675Z,5898,10,pineapple,pineapple,target,lower-right,1m11RBXv,validation - short,TRUE,Android,2023-03-01,1
2023-03-01T18:44:00.186Z,17631,11,ocean,ocean,target,upper-left,1m11RBXv,validation - short,TRUE,Android,2023-03-01,1
2023-03-01T18:44:20.779Z,15458,12,gazelle,gazelle,target,lower-right,1m11RBXv,validation - short,TRUE,Android,2023-03-01,1
2023-03-01T18:46:09.194Z,105467,13,chanterelle,chanterelle,target,upper-left,1m11RBXv,validation - short,TRUE,Android,2023-03-01,1
2023-03-01T18:46:53.921Z,36686,14,ruin,ruin,target,lower-right,1m11RBXv,validation - short,TRUE,Android,2023-03-01,1
2023-03-01T18:47:06.470Z,8672,15,labyrinth,labyrinth,target,lower-left,1m11RBXv,validation - short,TRUE,Android,2023-03-01,1
2023-03-01T18:48:33.020Z,84369,16,orchid,orchid,target,lower-left,1m11RBXv,validation - short,TRUE,Android,2023-03-01,1
2023-03-01T18:48:48.750Z,7991,17,zucchini,zucchini,target,upper-right,1m11RBXv,validation - short,TRUE,Android,2023-03-01,1
2023-03-01T18:49:02.900Z,7660,18,kayak,kayak,target,upper-left,1m11RBXv,validation - short,TRUE,Android,2023-03-01,1
2023-03-01T18:49:11.616Z,7360,19,lobster,lobster,target,upper-right,1m11RBXv,validation - short,TRUE,Android,2023-03-01,1
2023-03-01T18:49:19.270Z,6597,20,carnation,carnation,target,upper-right,1m11RBXv,validation - short,TRUE,Android,2023-03-01,1
2023-03-01T18:49:29.031Z,7952,21,flounder,flounder,target,lower-right,1m11RBXv,validation - short,TRUE,Android,2023-03-01,1
2023-03-01T18:49:45.525Z,14380,22,cello,cello,target,lower-left,1m11RBXv,validation - short,TRUE,Android,2023-03-01,1
2023-03-01T17:58:10.027Z,3336,1,eye,eye,target,upper-left,42kb9Tdb,validation - short,TRUE,Android,2023-03-01,1
2023-03-01T17:58:17.008Z,3544,2,carrot,carrot,target,lower-right,42kb9Tdb,validation - short,TRUE,Android,2023-03-01,1
2023-03-01T17:58:21.692Z,2884,3,ant,ant,target,upper-right,42kb9Tdb,validation - short,TRUE,Android,2023-03-01,1
2023-03-01T17:58:26.544Z,3275,4,elk,elk,target,upper-left,42kb9Tdb,validation - short,TRUE,Android,2023-03-01,1
2023-03-01T17:58:30.784Z,2666,5,choir,choir,target,upper-right,42kb9Tdb,validation - short,TRUE,Android,2023-03-01,1
2023-03-01T17:58:35.010Z,2889,6,ventilator,ventilator,target,lower-left,42kb9Tdb,validation - short,TRUE,Android,2023-03-01,1
2023-03-01T17:58:39.579Z,3264,7,arugula,dracula,dist2,upper-left,42kb9Tdb,validation - short,TRUE,Android,2023-03-01,0
2023-03-01T17:58:43.253Z,1889,8,giraffe,giraffe,target,upper-left,42kb9Tdb,validation - short,TRUE,Android,2023-03-01,1
2023-03-01T17:58:46.852Z,2309,9,palmtree,palmtree,target,lower-left,42kb9Tdb,validation - short,TRUE,Android,2023-03-01,1
2023-03-01T17:58:49.875Z,1919,10,pineapple,pineapple,target,lower-right,42kb9Tdb,validation - short,TRUE,Android,2023-03-01,1
2023-03-01T17:58:56.813Z,3591,11,ocean,ocean,target,upper-left,42kb9Tdb,validation - short,TRUE,Android,2023-03-01,1
2023-03-01T17:59:02.507Z,4387,12,gazelle,gazelle,target,lower-right,42kb9Tdb,validation - short,TRUE,Android,2023-03-01,1
2023-03-01T17:59:14.559Z,10605,13,chanterelle,chanterelle,target,upper-left,42kb9Tdb,validation - short,TRUE,Android,2023-03-01,1
2023-03-01T17:59:19.986Z,4029,14,ruin,ruin,target,lower-right,42kb9Tdb,validation - short,TRUE,Android,2023-03-01,1
2023-03-01T17:59:26.186Z,3209,15,labyrinth,labyrinth,target,lower-left,42kb9Tdb,validation - short,TRUE,Android,2023-03-01,1
2023-03-01T17:59:30.955Z,3342,16,orchid,orchid,target,lower-left,42kb9Tdb,validation - short,TRUE,Android,2023-03-01,1
2023-03-01T17:59:34.578Z,2216,17,zucchini,zucchini,target,upper-right,42kb9Tdb,validation - short,TRUE,Android,2023-03-01,1
2023-03-01T17:59:38.238Z,2443,18,kayak,kayak,target,upper-left,42kb9Tdb,validation - short,TRUE,Android,2023-03-01,1
2023-03-01T17:59:41.487Z,2145,19,lobster,lobster,target,upper-right,42kb9Tdb,validation - short,TRUE,Android,2023-03-01,1
2023-03-01T17:59:49.866Z,7161,20,carnation,violets,dist1,lower-right,42kb9Tdb,validation - short,TRUE,Android,2023-03-01,0
2023-03-01T17:59:56.339Z,3550,21,flounder,flounder,target,lower-right,42kb9Tdb,validation - short,TRUE,Android,2023-03-01,1
2023-03-01T18:00:03.001Z,5316,22,cello,harp,dist1,lower-right,42kb9Tdb,validation - short,TRUE,Android,2023-03-01,0
2023-03-01T18:06:21.201Z,12474,1,eye,eye,target,upper-left,4mBiTkwg,validation - short,TRUE,Mac OS X,2023-03-01,1
2023-03-01T18:06:28.810Z,3422,2,carrot,carrot,target,lower-right,4mBiTkwg,validation - short,TRUE,Mac OS X,2023-03-01,1
2023-03-01T18:06:35.578Z,3111,3,ant,ant,target,upper-right,4mBiTkwg,validation - short,TRUE,Mac OS X,2023-03-01,1
2023-03-01T18:06:43.043Z,3208,4,elk,elk,target,upper-left,4mBiTkwg,validation - short,TRUE,Mac OS X,2023-03-01,1
2023-03-01T18:06:47.044Z,2056,5,choir,pipe,dist2,upper-left,4mBiTkwg,validation - short,TRUE,Mac OS X,2023-03-01,0
2023-03-01T18:06:52.603Z,4036,6,ventilator,ventilator,target,lower-left,4mBiTkwg,validation - short,TRUE,Mac OS X,2023-03-01,1
2023-03-01T18:06:59.872Z,3085,7,arugula,dracula,dist2,upper-left,4mBiTkwg,validation - short,TRUE,Mac OS X,2023-03-01,0
2023-03-01T18:07:03.749Z,1613,8,giraffe,giraffe,target,upper-left,4mBiTkwg,validation - short,TRUE,Mac OS X,2023-03-01,1
2023-03-01T18:07:08.547Z,1853,9,palmtree,palmtree,target,lower-left,4mBiTkwg,validation - short,TRUE,Mac OS X,2023-03-01,1
2023-03-01T18:07:13.132Z,3101,10,pineapple,pineapple,target,lower-right,4mBiTkwg,validation - short,TRUE,Mac OS X,2023-03-01,1
2023-03-01T18:07:18.293Z,3423,11,ocean,ocean,target,upper-left,4mBiTkwg,validation - short,TRUE,Mac OS X,2023-03-01,1
2023-03-01T18:07:25.054Z,4954,12,gazelle,dragonfly,dist2,upper-left,4mBiTkwg,validation - short,TRUE,Mac OS X,2023-03-01,0
2023-03-01T18:07:30.630Z,3178,13,chanterelle,chanterelle,target,upper-left,4mBiTkwg,validation - short,TRUE,Mac OS X,2023-03-01,1
2023-03-01T18:07:35.949Z,4061,14,ruin,ruin,target,lower-right,4mBiTkwg,validation - short,TRUE,Mac OS X,2023-03-01,1
2023-03-01T18:07:39.419Z,2317,15,labyrinth,labyrinth,target,lower-left,4mBiTkwg,validation - short,TRUE,Mac OS X,2023-03-01,1
2023-03-01T18:07:47.902Z,7260,16,orchid,shrub,dist1,upper-left,4mBiTkwg,validation - short,TRUE,Mac OS X,2023-03-01,0
2023-03-01T18:07:52.061Z,2435,17,zucchini,zucchini,target,upper-right,4mBiTkwg,validation - short,TRUE,Mac OS X,2023-03-01,1
2023-03-01T18:07:56.764Z,3120,18,kayak,kayak,target,upper-left,4mBiTkwg,validation - short,TRUE,Mac OS X,2023-03-01,1
2023-03-01T18:08:16.028Z,17275,19,lobster,lobster,target,upper-right,4mBiTkwg,validation - short,TRUE,Mac OS X,2023-03-01,1
2023-03-01T18:08:21.511Z,3772,20,carnation,violets,dist1,lower-right,4mBiTkwg,validation - short,TRUE,Mac OS X,2023-03-01,0
2023-03-01T18:08:32.915Z,10152,21,flounder,flounder,target,lower-right,4mBiTkwg,validation - short,TRUE,Mac OS X,2023-03-01,1
2023-03-01T18:08:38.401Z,4104,22,cello,marshmallow,dist2,upper-right,4mBiTkwg,validation - short,TRUE,Mac OS X,2023-03-01,0
2023-03-01T17:11:17.508Z,3079,1,eye,eye,target,upper-left,4ZR7CvXE,validation - short,TRUE,Mac OS X,2023-03-01,1
2023-03-01T17:11:24.822Z,3348,2,carrot,carrot,target,lower-right,4ZR7CvXE,validation - short,TRUE,Mac OS X,2023-03-01,1
2023-03-01T17:11:34.236Z,6997,3,ant,ant,target,upper-right,4ZR7CvXE,validation - short,TRUE,Mac OS X,2023-03-01,1
2023-03-01T17:11:42.317Z,4646,4,elk,elk,target,upper-left,4ZR7CvXE,validation - short,TRUE,Mac OS X,2023-03-01,1
2023-03-01T17:11:49.415Z,4034,5,choir,choir,target,upper-right,4ZR7CvXE,validation - short,TRUE,Mac OS X,2023-03-01,1
2023-03-01T17:11:57.879Z,3682,6,ventilator,ventilator,target,lower-left,4ZR7CvXE,validation - short,TRUE,Mac OS X,2023-03-01,1
2023-03-01T17:12:07.027Z,4905,7,arugula,arugula,target,lower-right,4ZR7CvXE,validation - short,TRUE,Mac OS X,2023-03-01,1
2023-03-01T17:12:13.857Z,3288,8,giraffe,giraffe,target,upper-left,4ZR7CvXE,validation - short,TRUE,Mac OS X,2023-03-01,1
2023-03-01T17:12:29.767Z,7288,9,palmtree,palmtree,target,lower-left,4ZR7CvXE,validation - short,TRUE,Mac OS X,2023-03-01,1
2023-03-01T17:12:37.108Z,2380,10,pineapple,pineapple,target,lower-right,4ZR7CvXE,validation - short,TRUE,Mac OS X,2023-03-01,1
2023-03-01T17:13:06.726Z,25086,11,ocean,pelican,dist2,lower-right,4ZR7CvXE,validation - short,TRUE,Mac OS X,2023-03-01,0
2023-03-01T17:13:12.635Z,3570,12,gazelle,dragonfly,dist2,upper-left,4ZR7CvXE,validation - short,TRUE,Mac OS X,2023-03-01,0
2023-03-01T17:13:25.000Z,7386,13,chanterelle,chanterelle,target,upper-left,4ZR7CvXE,validation - short,TRUE,Mac OS X,2023-03-01,1
2023-03-01T17:13:36.330Z,8490,14,ruin,ruin,target,lower-right,4ZR7CvXE,validation - short,TRUE,Mac OS X,2023-03-01,1
2023-03-01T17:13:39.813Z,1993,15,labyrinth,labyrinth,target,lower-left,4ZR7CvXE,validation - short,TRUE,Mac OS X,2023-03-01,1
2023-03-01T17:13:47.559Z,4909,16,orchid,orchid,target,lower-left,4ZR7CvXE,validation - short,TRUE,Mac OS X,2023-03-01,1
2023-03-01T17:14:04.572Z,10000,17,zucchini,zucchini,target,upper-right,4ZR7CvXE,validation - short,TRUE,Mac OS X,2023-03-01,1
2023-03-01T17:14:16.198Z,4639,18,kayak,boomerang,dist3,lower-right,4ZR7CvXE,validation - short,TRUE,Mac OS X,2023-03-01,0
2023-03-01T17:14:25.129Z,6058,19,lobster,lobster,target,upper-right,4ZR7CvXE,validation - short,TRUE,Mac OS X,2023-03-01,1
2023-03-01T17:14:29.327Z,2858,20,carnation,carnation,target,upper-right,4ZR7CvXE,validation - short,TRUE,Mac OS X,2023-03-01,1
2023-03-01T17:14:40.024Z,8563,21,flounder,flounder,target,lower-right,4ZR7CvXE,validation - short,TRUE,Mac OS X,2023-03-01,1
2023-03-01T17:14:50.654Z,6869,22,cello,harp,dist1,lower-right,4ZR7CvXE,validation - short,TRUE,Mac OS X,2023-03-01,0
2023-03-01T16:01:15.352Z,5066,1,eye,eye,target,upper-left,5cdQstKn,validation - short,TRUE,Mac OS X,2023-03-01,1
2023-03-01T16:01:24.496Z,4612,2,carrot,carrot,target,lower-right,5cdQstKn,validation - short,TRUE,Mac OS X,2023-03-01,1
2023-03-01T16:01:29.085Z,2846,3,ant,ant,target,upper-right,5cdQstKn,validation - short,TRUE,Mac OS X,2023-03-01,1
2023-03-01T16:01:34.563Z,2801,4,elk,elk,target,upper-left,5cdQstKn,validation - short,TRUE,Mac OS X,2023-03-01,1
2023-03-01T16:01:39.413Z,3473,5,choir,choir,target,upper-right,5cdQstKn,validation - short,TRUE,Mac OS X,2023-03-01,1
2023-03-01T16:01:42.891Z,2000,6,ventilator,ventilator,target,lower-left,5cdQstKn,validation - short,TRUE,Mac OS X,2023-03-01,1
2023-03-01T16:01:50.016Z,5944,7,arugula,dracula,dist2,upper-left,5cdQstKn,validation - short,TRUE,Mac OS X,2023-03-01,0
2023-03-01T16:01:55.462Z,3630,8,giraffe,giraffe,target,upper-left,5cdQstKn,validation - short,TRUE,Mac OS X,2023-03-01,1
2023-03-01T16:01:58.634Z,1950,9,palmtree,palmtree,target,lower-left,5cdQstKn,validation - short,TRUE,Mac OS X,2023-03-01,1
2023-03-01T16:02:02.675Z,2841,10,pineapple,pineapple,target,lower-right,5cdQstKn,validation - short,TRUE,Mac OS X,2023-03-01,1
2023-03-01T16:02:06.729Z,2994,11,ocean,ocean,target,upper-left,5cdQstKn,validation - short,TRUE,Mac OS X,2023-03-01,1
2023-03-01T16:02:11.744Z,3227,12,gazelle,gazelle,target,lower-right,5cdQstKn,validation - short,TRUE,Mac OS X,2023-03-01,1
2023-03-01T16:02:22.603Z,9752,13,chanterelle,chanterelle,target,upper-left,5cdQstKn,validation - short,TRUE,Mac OS X,2023-03-01,1
2023-03-01T16:02:29.467Z,4948,14,ruin,ruin,target,lower-right,5cdQstKn,validation - short,TRUE,Mac OS X,2023-03-01,1
2023-03-01T16:02:32.843Z,1954,15,labyrinth,labyrinth,target,lower-left,5cdQstKn,validation - short,TRUE,Mac OS X,2023-03-01,1
2023-03-01T16:02:39.835Z,6017,16,orchid,banner,dist3,lower-right,5cdQstKn,validation - short,TRUE,Mac OS X,2023-03-01,0
2023-03-01T16:02:44.262Z,3173,17,zucchini,zucchini,target,upper-right,5cdQstKn,validation - short,TRUE,Mac OS X,2023-03-01,1
2023-03-01T16:02:51.706Z,6379,18,kayak,sailingboat,dist1,lower-left,5cdQstKn,validation - short,TRUE,Mac OS X,2023-03-01,0
2023-03-01T16:02:55.985Z,3073,19,lobster,lobster,target,upper-right,5cdQstKn,validation - short,TRUE,Mac OS X,2023-03-01,1
2023-03-01T16:03:01.016Z,2869,20,carnation,violets,dist1,lower-right,5cdQstKn,validation - short,TRUE,Mac OS X,2023-03-01,0
2023-03-01T16:03:07.266Z,4701,21,flounder,elderberry,dist2,upper-left,5cdQstKn,validation - short,TRUE,Mac OS X,2023-03-01,0
2023-03-01T16:03:10.608Z,1678,22,cello,cello,target,lower-left,5cdQstKn,validation - short,TRUE,Mac OS X,2023-03-01,1
2023-03-01T18:21:43.052Z,4141,1,eye,eye,target,upper-left,5sKsnepR,validation - short,TRUE,Android,2023-03-01,1
2023-03-01T18:21:49.251Z,3665,2,carrot,carrot,target,lower-right,5sKsnepR,validation - short,TRUE,Android,2023-03-01,1
2023-03-01T18:21:53.785Z,2853,3,ant,ant,target,upper-right,5sKsnepR,validation - short,TRUE,Android,2023-03-01,1
2023-03-01T18:22:04.914Z,9712,4,elk,elk,target,upper-left,5sKsnepR,validation - short,TRUE,Android,2023-03-01,1
2023-03-01T18:22:08.870Z,2362,5,choir,choir,target,upper-right,5sKsnepR,validation - short,TRUE,Android,2023-03-01,1
2023-03-01T18:22:13.084Z,2579,6,ventilator,ventilator,target,lower-left,5sKsnepR,validation - short,TRUE,Android,2023-03-01,1
2023-03-01T18:22:20.017Z,5496,7,arugula,dracula,dist2,upper-left,5sKsnepR,validation - short,TRUE,Android,2023-03-01,0
2023-03-01T18:22:25.786Z,1891,8,giraffe,giraffe,target,upper-left,5sKsnepR,validation - short,TRUE,Android,2023-03-01,1
2023-03-01T18:22:29.777Z,2419,9,palmtree,palmtree,target,lower-left,5sKsnepR,validation - short,TRUE,Android,2023-03-01,1
2023-03-01T18:22:33.519Z,1993,10,pineapple,pineapple,target,lower-right,5sKsnepR,validation - short,TRUE,Android,2023-03-01,1
2023-03-01T18:22:39.387Z,4461,11,ocean,ocean,target,upper-left,5sKsnepR,validation - short,TRUE,Android,2023-03-01,1
2023-03-01T18:22:51.067Z,10156,12,gazelle,gazelle,target,lower-right,5sKsnepR,validation - short,TRUE,Android,2023-03-01,1
2023-03-01T18:23:06.489Z,14201,13,chanterelle,chanterelle,target,upper-left,5sKsnepR,validation - short,TRUE,Android,2023-03-01,1
2023-03-01T18:23:12.475Z,4548,14,ruin,ruin,target,lower-right,5sKsnepR,validation - short,TRUE,Android,2023-03-01,1
2023-03-01T18:23:16.449Z,2742,15,labyrinth,labyrinth,target,lower-left,5sKsnepR,validation - short,TRUE,Android,2023-03-01,1
2023-03-01T18:23:39.507Z,21748,16,orchid,orchid,target,lower-left,5sKsnepR,validation - short,TRUE,Android,2023-03-01,1
2023-03-01T18:23:47.394Z,6488,17,zucchini,zucchini,target,upper-right,5sKsnepR,validation - short,TRUE,Android,2023-03-01,1
2023-03-01T18:24:00.823Z,11708,18,kayak,kayak,target,upper-left,5sKsnepR,validation - short,TRUE,Android,2023-03-01,1
2023-03-01T18:24:13.514Z,11070,19,lobster,clip,dist2,lower-left,5sKsnepR,validation - short,TRUE,Android,2023-03-01,0
2023-03-01T18:24:39.818Z,24232,20,carnation,violets,dist1,lower-right,5sKsnepR,validation - short,TRUE,Android,2023-03-01,0
2023-03-01T18:24:50.676Z,9077,21,flounder,flounder,target,lower-right,5sKsnepR,validation - short,TRUE,Android,2023-03-01,1
2023-03-01T18:25:06.104Z,13791,22,cello,harp,dist1,lower-right,5sKsnepR,validation - short,TRUE,Android,2023-03-01,0
2023-03-01T14:59:24.287Z,4623,1,eye,eye,target,upper-left,6rKtgcRD,validation - short,TRUE,Windows,2023-03-01,1
2023-03-01T14:59:32.576Z,5446,2,carrot,carrot,target,lower-right,6rKtgcRD,validation - short,TRUE,Windows,2023-03-01,1
2023-03-01T14:59:44.894Z,7443,3,ant,ant,target,upper-right,6rKtgcRD,validation - short,TRUE,Windows,2023-03-01,1
2023-03-01T14:59:51.157Z,4323,4,elk,elk,target,upper-left,6rKtgcRD,validation - short,TRUE,Windows,2023-03-01,1
2023-03-01T15:00:08.017Z,4404,5,choir,choir,target,upper-right,6rKtgcRD,validation - short,TRUE,Windows,2023-03-01,1
2023-03-01T15:00:18.060Z,6127,6,ventilator,ventilator,target,lower-left,6rKtgcRD,validation - short,TRUE,Windows,2023-03-01,1
2023-03-01T15:00:25.429Z,5390,7,arugula,dracula,dist2,upper-left,6rKtgcRD,validation - short,TRUE,Windows,2023-03-01,0
2023-03-01T15:00:30.554Z,2934,8,giraffe,giraffe,target,upper-left,6rKtgcRD,validation - short,TRUE,Windows,2023-03-01,1
2023-03-01T15:00:36.268Z,4478,9,palmtree,palmtree,target,lower-left,6rKtgcRD,validation - short,TRUE,Windows,2023-03-01,1
2023-03-01T15:00:41.151Z,2824,10,pineapple,pineapple,target,lower-right,6rKtgcRD,validation - short,TRUE,Windows,2023-03-01,1
2023-03-01T15:00:54.482Z,11362,11,ocean,ocean,target,upper-left,6rKtgcRD,validation - short,TRUE,Windows,2023-03-01,1
2023-03-01T15:01:04.664Z,6919,12,gazelle,gazelle,target,lower-right,6rKtgcRD,validation - short,TRUE,Windows,2023-03-01,1
2023-03-01T15:01:16.663Z,8660,13,chanterelle,chanterelle,target,upper-left,6rKtgcRD,validation - short,TRUE,Windows,2023-03-01,1
2023-03-01T15:01:37.328Z,17808,14,ruin,ruin,target,lower-right,6rKtgcRD,validation - short,TRUE,Windows,2023-03-01,1
2023-03-01T15:01:43.381Z,4351,15,labyrinth,labyrinth,target,lower-left,6rKtgcRD,validation - short,TRUE,Windows,2023-03-01,1
2023-03-01T15:02:20.193Z,33962,16,orchid,shrub,dist1,upper-left,6rKtgcRD,validation - short,TRUE,Windows,2023-03-01,0
2023-03-01T15:02:36.874Z,7296,17,zucchini,zucchini,target,upper-right,6rKtgcRD,validation - short,TRUE,Windows,2023-03-01,1
2023-03-01T15:02:48.581Z,9691,18,kayak,kayak,target,upper-left,6rKtgcRD,validation - short,TRUE,Windows,2023-03-01,1
2023-03-01T15:02:53.865Z,3300,19,lobster,lobster,target,upper-right,6rKtgcRD,validation - short,TRUE,Windows,2023-03-01,1
2023-03-01T15:03:07.578Z,11842,20,carnation,carnation,target,upper-right,6rKtgcRD,validation - short,TRUE,Windows,2023-03-01,1
2023-03-01T15:03:38.661Z,29634,21,flounder,flounder,target,lower-right,6rKtgcRD,validation - short,TRUE,Windows,2023-03-01,1
2023-03-01T15:03:44.968Z,4008,22,cello,cello,target,lower-left,6rKtgcRD,validation - short,TRUE,Windows,2023-03-01,1
2023-03-01T18:45:02.522Z,9449,1,eye,eye,target,upper-left,8bSBCphi,validation - short,TRUE,Windows,2023-03-01,1
2023-03-01T18:45:08.510Z,2994,2,carrot,carrot,target,lower-right,8bSBCphi,validation - short,TRUE,Windows,2023-03-01,1
2023-03-01T18:45:12.880Z,2653,3,ant,ant,target,upper-right,8bSBCphi,validation - short,TRUE,Windows,2023-03-01,1
2023-03-01T18:45:19.484Z,4800,4,elk,elk,target,upper-left,8bSBCphi,validation - short,TRUE,Windows,2023-03-01,1
2023-03-01T18:45:25.283Z,4040,5,choir,choir,target,upper-right,8bSBCphi,validation - short,TRUE,Windows,2023-03-01,1
2023-03-01T18:45:31.284Z,4224,6,ventilator,ventilator,target,lower-left,8bSBCphi,validation - short,TRUE,Windows,2023-03-01,1
2023-03-01T18:45:37.258Z,4334,7,arugula,dracula,dist2,upper-left,8bSBCphi,validation - short,TRUE,Windows,2023-03-01,0
2023-03-01T18:45:44.688Z,5210,8,giraffe,giraffe,target,upper-left,8bSBCphi,validation - short,TRUE,Windows,2023-03-01,1
2023-03-01T18:45:48.931Z,2605,9,palmtree,palmtree,target,lower-left,8bSBCphi,validation - short,TRUE,Windows,2023-03-01,1
2023-03-01T18:45:53.039Z,2388,10,pineapple,pineapple,target,lower-right,8bSBCphi,validation - short,TRUE,Windows,2023-03-01,1
2023-03-01T18:46:12.443Z,17737,11,ocean,ocean,target,upper-left,8bSBCphi,validation - short,TRUE,Windows,2023-03-01,1
2023-03-01T18:46:19.473Z,5289,12,gazelle,gazelle,target,lower-right,8bSBCphi,validation - short,TRUE,Windows,2023-03-01,1
2023-03-01T18:46:24.336Z,3125,13,chanterelle,chanterelle,target,upper-left,8bSBCphi,validation - short,TRUE,Windows,2023-03-01,1
2023-03-01T18:46:29.439Z,3500,14,ruin,ruin,target,lower-right,8bSBCphi,validation - short,TRUE,Windows,2023-03-01,1
2023-03-01T18:46:33.461Z,2381,15,labyrinth,labyrinth,target,lower-left,8bSBCphi,validation - short,TRUE,Windows,2023-03-01,1
2023-03-01T18:46:40.071Z,5644,16,orchid,orchid,target,lower-left,8bSBCphi,validation - short,TRUE,Windows,2023-03-01,1
2023-03-01T18:46:45.047Z,3332,17,zucchini,zucchini,target,upper-right,8bSBCphi,validation - short,TRUE,Windows,2023-03-01,1
2023-03-01T18:46:54.511Z,7820,18,kayak,kayak,target,upper-left,8bSBCphi,validation - short,TRUE,Windows,2023-03-01,1
2023-03-01T18:47:00.884Z,4401,19,lobster,lobster,target,upper-right,8bSBCphi,validation - short,TRUE,Windows,2023-03-01,1
2023-03-01T18:47:05.497Z,3077,20,carnation,violets,dist1,lower-right,8bSBCphi,validation - short,TRUE,Windows,2023-03-01,0
2023-03-01T18:47:16.989Z,9161,21,flounder,flounder,target,lower-right,8bSBCphi,validation - short,TRUE,Windows,2023-03-01,1
2023-03-01T18:47:21.884Z,3368,22,cello,cello,target,lower-left,8bSBCphi,validation - short,TRUE,Windows,2023-03-01,1
2023-03-01T15:35:28.395Z,44159,1,eye,eye,target,upper-left,8QY3biYo,validation - short,FALSE,Windows,2023-03-01,1
2023-03-01T15:35:39.773Z,6980,2,carrot,carrot,target,lower-right,8QY3biYo,validation - short,FALSE,Windows,2023-03-01,1
2023-03-01T15:36:07.691Z,24903,3,ant,ant,target,upper-right,8QY3biYo,validation - short,FALSE,Windows,2023-03-01,1
2023-03-01T15:36:22.204Z,12314,4,elk,elk,target,upper-left,8QY3biYo,validation - short,FALSE,Windows,2023-03-01,1
2023-03-01T15:36:45.193Z,19645,5,choir,choir,target,upper-right,8QY3biYo,validation - short,FALSE,Windows,2023-03-01,1
2023-03-01T15:36:59.556Z,7756,6,ventilator,ventilator,target,lower-left,8QY3biYo,validation - short,FALSE,Windows,2023-03-01,1
2023-03-01T15:37:14.846Z,10155,7,arugula,arugula,target,lower-right,8QY3biYo,validation - short,FALSE,Windows,2023-03-01,1
2023-03-01T15:37:25.933Z,7397,8,giraffe,giraffe,target,upper-left,8QY3biYo,validation - short,FALSE,Windows,2023-03-01,1
2023-03-01T15:37:34.095Z,5094,9,palmtree,palmtree,target,lower-left,8QY3biYo,validation - short,FALSE,Windows,2023-03-01,1
2023-03-01T15:37:43.627Z,6830,10,pineapple,pineapple,target,lower-right,8QY3biYo,validation - short,FALSE,Windows,2023-03-01,1
2023-03-01T15:38:01.267Z,12085,11,ocean,ocean,target,upper-left,8QY3biYo,validation - short,FALSE,Windows,2023-03-01,1
2023-03-01T15:38:21.911Z,15929,12,gazelle,gazelle,target,lower-right,8QY3biYo,validation - short,FALSE,Windows,2023-03-01,1
2023-03-01T15:38:39.302Z,12979,13,chanterelle,chanterelle,target,upper-left,8QY3biYo,validation - short,FALSE,Windows,2023-03-01,1
2023-03-01T15:38:58.260Z,14290,14,ruin,ruin,target,lower-right,8QY3biYo,validation - short,FALSE,Windows,2023-03-01,1
2023-03-01T15:39:12.324Z,7621,15,labyrinth,labyrinth,target,lower-left,8QY3biYo,validation - short,FALSE,Windows,2023-03-01,1
2023-03-01T15:39:25.573Z,8689,16,orchid,orchid,target,lower-left,8QY3biYo,validation - short,FALSE,Windows,2023-03-01,1
2023-03-01T15:39:39.976Z,7998,17,zucchini,zucchini,target,upper-right,8QY3biYo,validation - short,FALSE,Windows,2023-03-01,1
2023-03-01T15:40:02.628Z,13906,18,kayak,kayak,target,upper-left,8QY3biYo,validation - short,FALSE,Windows,2023-03-01,1
2023-03-01T15:40:39.072Z,10501,19,lobster,lobster,target,upper-right,8QY3biYo,validation - short,FALSE,Windows,2023-03-01,1
2023-03-01T15:41:03.277Z,19150,20,carnation,carnation,target,upper-right,8QY3biYo,validation - short,FALSE,Windows,2023-03-01,1
2023-03-01T15:41:25.692Z,13411,21,flounder,elderberry,dist2,upper-left,8QY3biYo,validation - short,FALSE,Windows,2023-03-01,0
2023-03-01T15:41:39.791Z,4862,22,cello,harp,dist1,lower-right,8QY3biYo,validation - short,FALSE,Windows,2023-03-01,0
2023-02-28T13:41:24.436Z,3032,1,eye,eye,target,upper-left,A4775Z,validation - short,FALSE,Windows,2023-02-28,1
2023-02-28T13:41:28.152Z,2550,2,carrot,cucumber,dist1,upper-right,A4775Z,validation - short,FALSE,Windows,2023-02-28,0
2023-02-28T13:41:31.864Z,2261,3,ant,ant,target,upper-right,A4775Z,validation - short,FALSE,Windows,2023-02-28,1
2023-02-28T13:41:35.399Z,2012,4,elk,elk,target,upper-left,A4775Z,validation - short,FALSE,Windows,2023-02-28,1
2023-02-28T13:41:37.939Z,1121,5,choir,pipe,dist2,upper-left,A4775Z,validation - short,FALSE,Windows,2023-02-28,0
2023-02-28T13:41:41.054Z,1684,6,ventilator,gardengate,dist2,upper-right,A4775Z,validation - short,FALSE,Windows,2023-02-28,0
2023-02-28T13:41:43.872Z,1576,7,arugula,arugula,target,lower-right,A4775Z,validation - short,FALSE,Windows,2023-02-28,1
2023-02-28T13:41:47.333Z,2357,8,giraffe,pizza,dist2,lower-right,A4775Z,validation - short,FALSE,Windows,2023-02-28,0
2023-02-28T13:41:49.339Z,1027,9,palmtree,drinkingstraws,dist2,lower-right,A4775Z,validation - short,FALSE,Windows,2023-02-28,0
2023-02-28T13:41:51.578Z,1000,10,pineapple,pineapple,target,lower-right,A4775Z,validation - short,FALSE,Windows,2023-02-28,1
2023-02-28T13:41:55.497Z,2600,11,ocean,pelican,dist2,lower-right,A4775Z,validation - short,FALSE,Windows,2023-02-28,0
2023-02-28T13:41:59.522Z,2471,12,gazelle,gazelle,target,lower-right,A4775Z,validation - short,FALSE,Windows,2023-02-28,1
2023-02-28T13:42:03.572Z,2828,13,chanterelle,chestnut,dist1,lower-right,A4775Z,validation - short,FALSE,Windows,2023-02-28,0
2023-02-28T13:42:07.981Z,3307,14,ruin,ruin,target,lower-right,A4775Z,validation - short,FALSE,Windows,2023-02-28,1
2023-02-28T13:42:10.281Z,1228,15,labyrinth,whirlwind,dist2,lower-right,A4775Z,validation - short,FALSE,Windows,2023-02-28,0
2023-02-28T13:42:13.036Z,1514,16,orchid,banner,dist3,lower-right,A4775Z,validation - short,FALSE,Windows,2023-02-28,0
2023-02-28T13:42:15.985Z,1303,17,zucchini,broccoli,dist1,lower-right,A4775Z,validation - short,FALSE,Windows,2023-02-28,0
2023-02-28T13:42:18.402Z,1301,18,kayak,boomerang,dist3,lower-right,A4775Z,validation - short,FALSE,Windows,2023-02-28,0
2023-02-28T13:42:20.343Z,974,19,lobster,crab,dist1,lower-right,A4775Z,validation - short,FALSE,Windows,2023-02-28,0
2023-02-28T13:42:22.663Z,1176,20,carnation,violets,dist1,lower-right,A4775Z,validation - short,FALSE,Windows,2023-02-28,0
2023-02-28T13:42:24.597Z,1069,21,flounder,flounder,target,lower-right,A4775Z,validation - short,FALSE,Windows,2023-02-28,1
2023-02-28T13:42:27.208Z,1401,22,cello,harp,dist1,lower-right,A4775Z,validation - short,FALSE,Windows,2023-02-28,0
2023-03-01T16:09:30.624Z,3626,1,eye,eye,target,upper-left,aaD3Fzr6,validation - short,TRUE,Windows,2023-03-01,1
2023-03-01T16:09:42.575Z,4994,2,carrot,carrot,target,lower-right,aaD3Fzr6,validation - short,TRUE,Windows,2023-03-01,1
2023-03-01T16:09:48.139Z,3073,3,ant,ant,target,upper-right,aaD3Fzr6,validation - short,TRUE,Windows,2023-03-01,1
2023-03-01T16:09:53.859Z,3720,4,elk,elk,target,upper-left,aaD3Fzr6,validation - short,TRUE,Windows,2023-03-01,1
2023-03-01T16:10:04.159Z,8412,5,choir,orchestra,dist1,lower-right,aaD3Fzr6,validation - short,TRUE,Windows,2023-03-01,0
2023-03-01T16:10:08.327Z,2906,6,ventilator,ventilator,target,lower-left,aaD3Fzr6,validation - short,TRUE,Windows,2023-03-01,1
2023-03-01T16:10:34.846Z,24675,7,arugula,brusselsprouts,dist1,lower-left,aaD3Fzr6,validation - short,TRUE,Windows,2023-03-01,0
2023-03-01T16:10:37.677Z,1695,8,giraffe,giraffe,target,upper-left,aaD3Fzr6,validation - short,TRUE,Windows,2023-03-01,1
2023-03-01T16:10:43.931Z,3213,9,palmtree,palmtree,target,lower-left,aaD3Fzr6,validation - short,TRUE,Windows,2023-03-01,1
2023-03-01T16:10:47.455Z,2287,10,pineapple,pineapple,target,lower-right,aaD3Fzr6,validation - short,TRUE,Windows,2023-03-01,1
2023-03-01T16:10:53.419Z,4160,11,ocean,ocean,target,upper-left,aaD3Fzr6,validation - short,TRUE,Windows,2023-03-01,1
2023-03-01T16:11:04.149Z,9115,12,gazelle,astronaut,dist3,lower-left,aaD3Fzr6,validation - short,TRUE,Windows,2023-03-01,0
2023-03-01T16:11:15.876Z,6905,13,chanterelle,diamond,dist3,upper-right,aaD3Fzr6,validation - short,TRUE,Windows,2023-03-01,0
2023-03-01T16:11:30.824Z,13381,14,ruin,fortress,dist1,upper-right,aaD3Fzr6,validation - short,TRUE,Windows,2023-03-01,0
2023-03-01T16:11:42.240Z,7288,15,labyrinth,labyrinth,target,lower-left,aaD3Fzr6,validation - short,TRUE,Windows,2023-03-01,1
2023-03-01T16:11:49.836Z,6171,16,orchid,shrub,dist1,upper-left,aaD3Fzr6,validation - short,TRUE,Windows,2023-03-01,0
2023-03-01T16:11:55.531Z,2735,17,zucchini,zucchini,target,upper-right,aaD3Fzr6,validation - short,TRUE,Windows,2023-03-01,1
2023-03-01T16:12:04.839Z,7653,18,kayak,sailingboat,dist1,lower-left,aaD3Fzr6,validation - short,TRUE,Windows,2023-03-01,0
2023-03-01T16:12:20.162Z,12908,19,lobster,microscope,dist3,upper-left,aaD3Fzr6,validation - short,TRUE,Windows,2023-03-01,0
2023-03-01T16:12:30.000Z,6233,20,carnation,tents,dist2,lower-left,aaD3Fzr6,validation - short,TRUE,Windows,2023-03-01,0
2023-03-01T16:12:40.609Z,7972,21,flounder,pyramid,dist3,upper-right,aaD3Fzr6,validation - short,TRUE,Windows,2023-03-01,0
2023-03-01T16:12:46.911Z,4774,22,cello,harp,dist1,lower-right,aaD3Fzr6,validation - short,TRUE,Windows,2023-03-01,0
2023-03-01T11:52:03.516Z,4819,1,eye,eye,target,upper-left,atfvB6NX,validation - short,FALSE,Windows,2023-03-01,1
2023-03-01T11:52:09.266Z,3621,2,carrot,carrot,target,lower-right,atfvB6NX,validation - short,FALSE,Windows,2023-03-01,1
2023-03-01T11:52:15.016Z,3403,3,ant,ant,target,upper-right,atfvB6NX,validation - short,FALSE,Windows,2023-03-01,1
2023-03-01T11:52:21.629Z,4313,4,elk,elk,target,upper-left,atfvB6NX,validation - short,FALSE,Windows,2023-03-01,1
2023-03-01T11:52:28.227Z,4845,5,choir,orchestra,dist1,lower-right,atfvB6NX,validation - short,FALSE,Windows,2023-03-01,0
2023-03-01T11:52:34.760Z,3094,6,ventilator,ventilator,target,lower-left,atfvB6NX,validation - short,FALSE,Windows,2023-03-01,1
2023-03-01T11:52:40.049Z,3352,7,arugula,arugula,target,lower-right,atfvB6NX,validation - short,FALSE,Windows,2023-03-01,1
2023-03-01T11:52:44.813Z,3097,8,giraffe,giraffe,target,upper-left,atfvB6NX,validation - short,FALSE,Windows,2023-03-01,1
2023-03-01T11:52:49.514Z,2568,9,palmtree,palmtree,target,lower-left,atfvB6NX,validation - short,FALSE,Windows,2023-03-01,1
2023-03-01T11:52:54.264Z,2946,10,pineapple,pineapple,target,lower-right,atfvB6NX,validation - short,FALSE,Windows,2023-03-01,1
2023-03-01T11:53:01.278Z,5265,11,ocean,ocean,target,upper-left,atfvB6NX,validation - short,FALSE,Windows,2023-03-01,1
2023-03-01T11:53:08.911Z,5252,12,gazelle,dragonfly,dist2,upper-left,atfvB6NX,validation - short,FALSE,Windows,2023-03-01,0
2023-03-01T11:53:17.661Z,6829,13,chanterelle,chanterelle,target,upper-left,atfvB6NX,validation - short,FALSE,Windows,2023-03-01,1
2023-03-01T11:53:23.676Z,4279,14,ruin,ruin,target,lower-right,atfvB6NX,validation - short,FALSE,Windows,2023-03-01,1
2023-03-01T11:53:28.991Z,3559,15,labyrinth,labyrinth,target,lower-left,atfvB6NX,validation - short,FALSE,Windows,2023-03-01,1
2023-03-01T11:53:34.530Z,3684,16,orchid,orchid,target,lower-left,atfvB6NX,validation - short,FALSE,Windows,2023-03-01,1
2023-03-01T11:53:41.622Z,5174,17,zucchini,zucchini,target,upper-right,atfvB6NX,validation - short,FALSE,Windows,2023-03-01,1
2023-03-01T11:53:47.376Z,3945,18,kayak,kayak,target,upper-left,atfvB6NX,validation - short,FALSE,Windows,2023-03-01,1
2023-03-01T11:53:53.545Z,3983,19,lobster,lobster,target,upper-right,atfvB6NX,validation - short,FALSE,Windows,2023-03-01,1
2023-03-01T11:54:02.944Z,7348,20,carnation,violets,dist1,lower-right,atfvB6NX,validation - short,FALSE,Windows,2023-03-01,0
2023-03-01T11:54:07.894Z,3300,21,flounder,flounder,target,lower-right,atfvB6NX,validation - short,FALSE,Windows,2023-03-01,1
2023-03-01T11:54:13.761Z,4245,22,cello,cello,target,lower-left,atfvB6NX,validation - short,FALSE,Windows,2023-03-01,1
2023-03-01T16:33:05.035Z,5072,1,eye,eye,target,upper-left,bSoph7T7,validation - short,FALSE,Windows,2023-03-01,1
2023-03-01T16:33:11.411Z,3992,2,carrot,carrot,target,lower-right,bSoph7T7,validation - short,FALSE,Windows,2023-03-01,1
2023-03-01T16:33:19.452Z,6705,3,ant,ant,target,upper-right,bSoph7T7,validation - short,FALSE,Windows,2023-03-01,1
2023-03-01T16:33:26.566Z,4903,4,elk,elk,target,upper-left,bSoph7T7,validation - short,FALSE,Windows,2023-03-01,1
2023-03-01T16:33:32.527Z,4244,5,choir,choir,target,upper-right,bSoph7T7,validation - short,FALSE,Windows,2023-03-01,1
2023-03-01T16:33:39.287Z,4054,6,ventilator,ventilator,target,lower-left,bSoph7T7,validation - short,FALSE,Windows,2023-03-01,1
2023-03-01T16:33:44.286Z,3620,7,arugula,brusselsprouts,dist1,lower-left,bSoph7T7,validation - short,FALSE,Windows,2023-03-01,0
2023-03-01T16:33:49.368Z,2989,8,giraffe,giraffe,target,upper-left,bSoph7T7,validation - short,FALSE,Windows,2023-03-01,1
2023-03-01T16:33:55.424Z,4484,9,palmtree,palmtree,target,lower-left,bSoph7T7,validation - short,FALSE,Windows,2023-03-01,1
2023-03-01T16:34:01.162Z,3487,10,pineapple,pineapple,target,lower-right,bSoph7T7,validation - short,FALSE,Windows,2023-03-01,1
2023-03-01T16:34:08.211Z,5320,11,ocean,factory,dist3,upper-right,bSoph7T7,validation - short,FALSE,Windows,2023-03-01,0
2023-03-01T16:34:17.900Z,7225,12,gazelle,deer,dist1,upper-right,bSoph7T7,validation - short,FALSE,Windows,2023-03-01,0
2023-03-01T16:34:25.380Z,5072,13,chanterelle,chestnut,dist1,lower-right,bSoph7T7,validation - short,FALSE,Windows,2023-03-01,0
2023-03-01T16:34:36.869Z,9594,14,ruin,fortress,dist1,upper-right,bSoph7T7,validation - short,FALSE,Windows,2023-03-01,0
2023-03-01T16:34:46.558Z,7704,15,labyrinth,labyrinth,target,lower-left,bSoph7T7,validation - short,FALSE,Windows,2023-03-01,1
2023-03-01T16:34:53.942Z,5878,16,orchid,banner,dist3,lower-right,bSoph7T7,validation - short,FALSE,Windows,2023-03-01,0
2023-03-01T16:34:59.071Z,3844,17,zucchini,broccoli,dist1,lower-right,bSoph7T7,validation - short,FALSE,Windows,2023-03-01,0
2023-03-01T16:35:05.096Z,4053,18,kayak,boomerang,dist3,lower-right,bSoph7T7,validation - short,FALSE,Windows,2023-03-01,0
2023-03-01T16:35:13.169Z,6626,19,lobster,microscope,dist3,upper-left,bSoph7T7,validation - short,FALSE,Windows,2023-03-01,0
2023-03-01T16:35:20.009Z,5485,20,carnation,compass,dist3,upper-left,bSoph7T7,validation - short,FALSE,Windows,2023-03-01,0
2023-03-01T16:35:27.666Z,5437,21,flounder,elderberry,dist2,upper-left,bSoph7T7,validation - short,FALSE,Windows,2023-03-01,0
2023-03-01T16:35:34.083Z,4144,22,cello,marshmallow,dist2,upper-right,bSoph7T7,validation - short,FALSE,Windows,2023-03-01,0
2023-03-01T17:53:34.689Z,5155,1,eye,eye,target,upper-left,bVinhgvQ,validation - short,FALSE,Windows,2023-03-01,1
2023-03-01T17:53:40.384Z,4279,2,carrot,carrot,target,lower-right,bVinhgvQ,validation - short,FALSE,Windows,2023-03-01,1
2023-03-01T17:53:46.041Z,3979,3,ant,ant,target,upper-right,bVinhgvQ,validation - short,FALSE,Windows,2023-03-01,1
2023-03-01T17:53:51.921Z,4561,4,elk,elk,target,upper-left,bVinhgvQ,validation - short,FALSE,Windows,2023-03-01,1
2023-03-01T17:54:05.024Z,11466,5,choir,choir,target,upper-right,bVinhgvQ,validation - short,FALSE,Windows,2023-03-01,1
2023-03-01T17:54:11.177Z,4825,6,ventilator,ventilator,target,lower-left,bVinhgvQ,validation - short,FALSE,Windows,2023-03-01,1
2023-03-01T17:54:16.817Z,4119,7,arugula,arugula,target,lower-right,bVinhgvQ,validation - short,FALSE,Windows,2023-03-01,1
2023-03-01T17:54:21.929Z,3582,8,giraffe,giraffe,target,upper-left,bVinhgvQ,validation - short,FALSE,Windows,2023-03-01,1
2023-03-01T17:54:26.345Z,3192,9,palmtree,palmtree,target,lower-left,bVinhgvQ,validation - short,FALSE,Windows,2023-03-01,1
2023-03-01T17:54:30.465Z,2889,10,pineapple,pineapple,target,lower-right,bVinhgvQ,validation - short,FALSE,Windows,2023-03-01,1
2023-03-01T17:54:39.297Z,7554,11,ocean,ocean,target,upper-left,bVinhgvQ,validation - short,FALSE,Windows,2023-03-01,1
2023-03-01T17:54:47.721Z,6886,12,gazelle,deer,dist1,upper-right,bVinhgvQ,validation - short,FALSE,Windows,2023-03-01,0
2023-03-01T17:54:59.625Z,10408,13,chanterelle,chanterelle,target,upper-left,bVinhgvQ,validation - short,FALSE,Windows,2023-03-01,1
2023-03-01T17:55:07.409Z,6430,14,ruin,ruin,target,lower-right,bVinhgvQ,validation - short,FALSE,Windows,2023-03-01,1
2023-03-01T17:55:13.081Z,4055,15,labyrinth,labyrinth,target,lower-left,bVinhgvQ,validation - short,FALSE,Windows,2023-03-01,1
2023-03-01T17:55:21.385Z,7095,16,orchid,banner,dist3,lower-right,bVinhgvQ,validation - short,FALSE,Windows,2023-03-01,0
2023-03-01T17:55:27.073Z,4669,17,zucchini,zucchini,target,upper-right,bVinhgvQ,validation - short,FALSE,Windows,2023-03-01,1
2023-03-01T17:55:34.441Z,5934,18,kayak,boomerang,dist3,lower-right,bVinhgvQ,validation - short,FALSE,Windows,2023-03-01,0
2023-03-01T17:55:39.978Z,4096,19,lobster,lobster,target,upper-right,bVinhgvQ,validation - short,FALSE,Windows,2023-03-01,1
2023-03-01T17:55:49.617Z,7956,20,carnation,violets,dist1,lower-right,bVinhgvQ,validation - short,FALSE,Windows,2023-03-01,0
2023-03-01T17:55:57.304Z,6121,21,flounder,flounder,target,lower-right,bVinhgvQ,validation - short,FALSE,Windows,2023-03-01,1
2023-03-01T17:56:05.256Z,6835,22,cello,harp,dist1,lower-right,bVinhgvQ,validation - short,FALSE,Windows,2023-03-01,0
2023-03-01T15:49:04.297Z,5717,1,eye,eye,target,upper-left,bxDYS8Vr,validation - short,FALSE,Mac OS X,2023-03-01,1
2023-03-01T15:49:10.507Z,4251,2,carrot,carrot,target,lower-right,bxDYS8Vr,validation - short,FALSE,Mac OS X,2023-03-01,1
2023-03-01T15:49:15.887Z,4069,3,ant,ant,target,upper-right,bxDYS8Vr,validation - short,FALSE,Mac OS X,2023-03-01,1
2023-03-01T15:49:22.068Z,4633,4,elk,elk,target,upper-left,bxDYS8Vr,validation - short,FALSE,Mac OS X,2023-03-01,1
2023-03-01T15:49:35.094Z,11426,5,choir,choir,target,upper-right,bxDYS8Vr,validation - short,FALSE,Mac OS X,2023-03-01,1
2023-03-01T15:49:40.402Z,3815,6,ventilator,ventilator,target,lower-left,bxDYS8Vr,validation - short,FALSE,Mac OS X,2023-03-01,1
2023-03-01T15:49:51.809Z,10054,7,arugula,brusselsprouts,dist1,lower-left,bxDYS8Vr,validation - short,FALSE,Mac OS X,2023-03-01,0
2023-03-01T15:49:56.082Z,3040,8,giraffe,giraffe,target,upper-left,bxDYS8Vr,validation - short,FALSE,Mac OS X,2023-03-01,1
2023-03-01T15:50:00.216Z,2549,9,palmtree,palmtree,target,lower-left,bxDYS8Vr,validation - short,FALSE,Mac OS X,2023-03-01,1
2023-03-01T15:50:03.607Z,2233,10,pineapple,pineapple,target,lower-right,bxDYS8Vr,validation - short,FALSE,Mac OS X,2023-03-01,1
2023-03-01T15:50:10.677Z,5858,11,ocean,factory,dist3,upper-right,bxDYS8Vr,validation - short,FALSE,Mac OS X,2023-03-01,0
2023-03-01T15:50:16.785Z,4859,12,gazelle,dragonfly,dist2,upper-left,bxDYS8Vr,validation - short,FALSE,Mac OS X,2023-03-01,0
2023-03-01T15:50:25.513Z,7306,13,chanterelle,butterfly,dist2,lower-left,bxDYS8Vr,validation - short,FALSE,Mac OS X,2023-03-01,0
2023-03-01T15:50:38.598Z,11455,14,ruin,ruin,target,lower-right,bxDYS8Vr,validation - short,FALSE,Mac OS X,2023-03-01,1
2023-03-01T15:50:42.306Z,2448,15,labyrinth,labyrinth,target,lower-left,bxDYS8Vr,validation - short,FALSE,Mac OS X,2023-03-01,1
2023-03-01T15:50:50.861Z,7386,16,orchid,toe,dist2,upper-right,bxDYS8Vr,validation - short,FALSE,Mac OS X,2023-03-01,0
2023-03-01T15:51:01.385Z,9331,17,zucchini,broccoli,dist1,lower-right,bxDYS8Vr,validation - short,FALSE,Mac OS X,2023-03-01,0
2023-03-01T15:51:08.100Z,5422,18,kayak,boomerang,dist3,lower-right,bxDYS8Vr,validation - short,FALSE,Mac OS X,2023-03-01,0
2023-03-01T15:51:14.561Z,5272,19,lobster,microscope,dist3,upper-left,bxDYS8Vr,validation - short,FALSE,Mac OS X,2023-03-01,0
2023-03-01T15:51:22.917Z,6616,20,carnation,compass,dist3,upper-left,bxDYS8Vr,validation - short,FALSE,Mac OS X,2023-03-01,0
2023-03-01T15:51:28.105Z,3908,21,flounder,orca,dist1,lower-left,bxDYS8Vr,validation - short,FALSE,Mac OS X,2023-03-01,0
2023-03-01T15:51:31.225Z,2014,22,cello,cello,target,lower-left,bxDYS8Vr,validation - short,FALSE,Mac OS X,2023-03-01,1
2023-03-01T19:16:15.468Z,4236,1,eye,eye,target,upper-left,CDXfHE87,validation - short,FALSE,Windows,2023-03-01,1
2023-03-01T19:16:23.403Z,4317,2,carrot,carrot,target,lower-right,CDXfHE87,validation - short,FALSE,Windows,2023-03-01,1
2023-03-01T19:16:29.371Z,4094,3,ant,ant,target,upper-right,CDXfHE87,validation - short,FALSE,Windows,2023-03-01,1
2023-03-01T19:16:35.876Z,4893,4,elk,elk,target,upper-left,CDXfHE87,validation - short,FALSE,Windows,2023-03-01,1
2023-03-01T19:16:49.907Z,11984,5,choir,orchestra,dist1,lower-right,CDXfHE87,validation - short,FALSE,Windows,2023-03-01,0
2023-03-01T19:16:54.523Z,3422,6,ventilator,ventilator,target,lower-left,CDXfHE87,validation - short,FALSE,Windows,2023-03-01,1
2023-03-01T19:17:00.955Z,4845,7,arugula,dracula,dist2,upper-left,CDXfHE87,validation - short,FALSE,Windows,2023-03-01,0
2023-03-01T19:17:09.011Z,6444,8,giraffe,giraffe,target,upper-left,CDXfHE87,validation - short,FALSE,Windows,2023-03-01,1
2023-03-01T19:17:13.939Z,2720,9,palmtree,palmtree,target,lower-left,CDXfHE87,validation - short,FALSE,Windows,2023-03-01,1
2023-03-01T19:17:18.795Z,3747,10,pineapple,pineapple,target,lower-right,CDXfHE87,validation - short,FALSE,Windows,2023-03-01,1
2023-03-01T19:17:24.676Z,4472,11,ocean,ocean,target,upper-left,CDXfHE87,validation - short,FALSE,Windows,2023-03-01,1
2023-03-01T19:17:33.884Z,7985,12,gazelle,gazelle,target,lower-right,CDXfHE87,validation - short,FALSE,Windows,2023-03-01,1
2023-03-01T19:17:48.355Z,13291,13,chanterelle,butterfly,dist2,lower-left,CDXfHE87,validation - short,FALSE,Windows,2023-03-01,0
2023-03-01T19:18:05.051Z,13813,14,ruin,ruin,target,lower-right,CDXfHE87,validation - short,FALSE,Windows,2023-03-01,1
2023-03-01T19:18:12.515Z,3911,15,labyrinth,labyrinth,target,lower-left,CDXfHE87,validation - short,FALSE,Windows,2023-03-01,1
2023-03-01T19:18:31.043Z,13181,16,orchid,orchid,target,lower-left,CDXfHE87,validation - short,FALSE,Windows,2023-03-01,1
2023-03-01T19:18:43.844Z,11473,17,zucchini,broccoli,dist1,lower-right,CDXfHE87,validation - short,FALSE,Windows,2023-03-01,0
2023-03-01T19:18:48.987Z,3353,18,kayak,kayak,target,upper-left,CDXfHE87,validation - short,FALSE,Windows,2023-03-01,1
2023-03-01T19:19:01.099Z,10460,19,lobster,microscope,dist3,upper-left,CDXfHE87,validation - short,FALSE,Windows,2023-03-01,0
2023-03-01T19:19:23.939Z,8037,20,carnation,carnation,target,upper-right,CDXfHE87,validation - short,FALSE,Windows,2023-03-01,1
2023-03-01T19:19:34.339Z,6672,21,flounder,elderberry,dist2,upper-left,CDXfHE87,validation - short,FALSE,Windows,2023-03-01,0
2023-03-01T19:19:46.443Z,2836,22,cello,cello,target,lower-left,CDXfHE87,validation - short,FALSE,Windows,2023-03-01,1
2023-03-01T17:22:02.941Z,8587,1,eye,eye,target,upper-left,cLcLLCHq,validation - short,TRUE,Windows,2023-03-01,1
2023-03-01T17:22:11.534Z,4888,2,carrot,carrot,target,lower-right,cLcLLCHq,validation - short,TRUE,Windows,2023-03-01,1
2023-03-01T17:22:16.138Z,2784,3,ant,ant,target,upper-right,cLcLLCHq,validation - short,TRUE,Windows,2023-03-01,1
2023-03-01T17:22:23.029Z,5608,4,elk,elk,target,upper-left,cLcLLCHq,validation - short,TRUE,Windows,2023-03-01,1
2023-03-01T17:22:27.514Z,2967,5,choir,choir,target,upper-right,cLcLLCHq,validation - short,TRUE,Windows,2023-03-01,1
2023-03-01T17:22:42.673Z,3241,6,ventilator,ventilator,target,lower-left,cLcLLCHq,validation - short,TRUE,Windows,2023-03-01,1
2023-03-01T17:22:52.665Z,8676,7,arugula,dracula,dist2,upper-left,cLcLLCHq,validation - short,TRUE,Windows,2023-03-01,0
2023-03-01T17:22:56.502Z,2348,8,giraffe,giraffe,target,upper-left,cLcLLCHq,validation - short,TRUE,Windows,2023-03-01,1
2023-03-01T17:23:00.130Z,2308,9,palmtree,palmtree,target,lower-left,cLcLLCHq,validation - short,TRUE,Windows,2023-03-01,1
2023-03-01T17:23:02.870Z,1759,10,pineapple,pineapple,target,lower-right,cLcLLCHq,validation - short,TRUE,Windows,2023-03-01,1
2023-03-01T17:23:09.490Z,4739,11,ocean,ocean,target,upper-left,cLcLLCHq,validation - short,TRUE,Windows,2023-03-01,1
2023-03-01T17:23:14.517Z,3845,12,gazelle,gazelle,target,lower-right,cLcLLCHq,validation - short,TRUE,Windows,2023-03-01,1
2023-03-01T17:23:23.436Z,7701,13,chanterelle,butterfly,dist2,lower-left,cLcLLCHq,validation - short,TRUE,Windows,2023-03-01,0
2023-03-01T17:23:31.702Z,5676,14,ruin,ruin,target,lower-right,cLcLLCHq,validation - short,TRUE,Windows,2023-03-01,1
2023-03-01T17:23:40.448Z,6330,15,labyrinth,labyrinth,target,lower-left,cLcLLCHq,validation - short,TRUE,Windows,2023-03-01,1
2023-03-01T17:23:45.075Z,3355,16,orchid,orchid,target,lower-left,cLcLLCHq,validation - short,TRUE,Windows,2023-03-01,1
2023-03-01T17:23:57.148Z,10417,17,zucchini,zucchini,target,upper-right,cLcLLCHq,validation - short,TRUE,Windows,2023-03-01,1
2023-03-01T17:24:16.538Z,17948,18,kayak,sailingboat,dist1,lower-left,cLcLLCHq,validation - short,TRUE,Windows,2023-03-01,0
2023-03-01T17:24:24.233Z,6374,19,lobster,lobster,target,upper-right,cLcLLCHq,validation - short,TRUE,Windows,2023-03-01,1
2023-03-01T17:24:31.351Z,5752,20,carnation,violets,dist1,lower-right,cLcLLCHq,validation - short,TRUE,Windows,2023-03-01,0
2023-03-01T17:24:38.178Z,4532,21,flounder,flounder,target,lower-right,cLcLLCHq,validation - short,TRUE,Windows,2023-03-01,1
2023-03-01T17:24:43.657Z,3794,22,cello,cello,target,lower-left,cLcLLCHq,validation - short,TRUE,Windows,2023-03-01,1
2023-03-01T18:52:37.108Z,14341,1,eye,eye,target,upper-left,CqXKsdis,validation - short,TRUE,Mac OS X,2023-03-01,1
2023-03-01T18:52:43.529Z,3751,2,carrot,carrot,target,lower-right,CqXKsdis,validation - short,TRUE,Mac OS X,2023-03-01,1
2023-03-01T18:52:51.639Z,3936,3,ant,ant,target,upper-right,CqXKsdis,validation - short,TRUE,Mac OS X,2023-03-01,1
2023-03-01T18:52:58.136Z,3599,4,elk,elk,target,upper-left,CqXKsdis,validation - short,TRUE,Mac OS X,2023-03-01,1
2023-03-01T18:53:14.485Z,14866,5,choir,choir,target,upper-right,CqXKsdis,validation - short,TRUE,Mac OS X,2023-03-01,1
2023-03-01T18:53:20.813Z,3598,6,ventilator,ventilator,target,lower-left,CqXKsdis,validation - short,TRUE,Mac OS X,2023-03-01,1
2023-03-01T18:53:25.993Z,3401,7,arugula,arugula,target,lower-right,CqXKsdis,validation - short,TRUE,Mac OS X,2023-03-01,1
2023-03-01T18:53:29.922Z,2052,8,giraffe,giraffe,target,upper-left,CqXKsdis,validation - short,TRUE,Mac OS X,2023-03-01,1
2023-03-01T18:53:33.478Z,2019,9,palmtree,palmtree,target,lower-left,CqXKsdis,validation - short,TRUE,Mac OS X,2023-03-01,1
2023-03-01T18:53:38.352Z,2019,10,pineapple,pineapple,target,lower-right,CqXKsdis,validation - short,TRUE,Mac OS X,2023-03-01,1
2023-03-01T18:53:43.181Z,3422,11,ocean,ocean,target,upper-left,CqXKsdis,validation - short,TRUE,Mac OS X,2023-03-01,1
2023-03-01T18:54:03.655Z,19022,12,gazelle,gazelle,target,lower-right,CqXKsdis,validation - short,TRUE,Mac OS X,2023-03-01,1
2023-03-01T18:54:10.963Z,4080,13,chanterelle,chanterelle,target,upper-left,CqXKsdis,validation - short,TRUE,Mac OS X,2023-03-01,1
2023-03-01T18:54:20.913Z,7986,14,ruin,ruin,target,lower-right,CqXKsdis,validation - short,TRUE,Mac OS X,2023-03-01,1
2023-03-01T18:54:25.889Z,3409,15,labyrinth,labyrinth,target,lower-left,CqXKsdis,validation - short,TRUE,Mac OS X,2023-03-01,1
2023-03-01T18:54:35.715Z,8308,16,orchid,orchid,target,lower-left,CqXKsdis,validation - short,TRUE,Mac OS X,2023-03-01,1
2023-03-01T18:54:41.123Z,3181,17,zucchini,zucchini,target,upper-right,CqXKsdis,validation - short,TRUE,Mac OS X,2023-03-01,1
2023-03-01T18:54:50.639Z,7748,18,kayak,kayak,target,upper-left,CqXKsdis,validation - short,TRUE,Mac OS X,2023-03-01,1
2023-03-01T18:54:59.112Z,6286,19,lobster,lobster,target,upper-right,CqXKsdis,validation - short,TRUE,Mac OS X,2023-03-01,1
2023-03-01T18:55:05.710Z,4807,20,carnation,carnation,target,upper-right,CqXKsdis,validation - short,TRUE,Mac OS X,2023-03-01,1
2023-03-01T18:55:10.870Z,3444,21,flounder,flounder,target,lower-right,CqXKsdis,validation - short,TRUE,Mac OS X,2023-03-01,1
2023-03-01T18:55:27.408Z,14750,22,cello,cello,target,lower-left,CqXKsdis,validation - short,TRUE,Mac OS X,2023-03-01,1
2023-03-02T07:19:20.750Z,9518,1,eye,eye,target,upper-left,CVfWC79e,validation - short,TRUE,iOS,2023-03-02,1
2023-03-02T07:19:26.826Z,4175,2,carrot,carrot,target,lower-right,CVfWC79e,validation - short,TRUE,iOS,2023-03-02,1
2023-03-02T07:19:32.616Z,3458,3,ant,ant,target,upper-right,CVfWC79e,validation - short,TRUE,iOS,2023-03-02,1
2023-03-02T07:19:43.948Z,9614,4,elk,elk,target,upper-left,CVfWC79e,validation - short,TRUE,iOS,2023-03-02,1
2023-03-02T07:20:16.155Z,30847,5,choir,choir,target,upper-right,CVfWC79e,validation - short,TRUE,iOS,2023-03-02,1
2023-03-02T07:20:26.954Z,7127,6,ventilator,ventilator,target,lower-left,CVfWC79e,validation - short,TRUE,iOS,2023-03-02,1
2023-03-02T07:20:44.494Z,16159,7,arugula,dracula,dist2,upper-left,CVfWC79e,validation - short,TRUE,iOS,2023-03-02,0
2023-03-02T07:20:51.327Z,5153,8,giraffe,giraffe,target,upper-left,CVfWC79e,validation - short,TRUE,iOS,2023-03-02,1
2023-03-02T07:20:58.843Z,6327,9,palmtree,palmtree,target,lower-left,CVfWC79e,validation - short,TRUE,iOS,2023-03-02,1
2023-03-02T07:21:12.144Z,8228,10,pineapple,pineapple,target,lower-right,CVfWC79e,validation - short,TRUE,iOS,2023-03-02,1
2023-03-02T07:21:24.731Z,10140,11,ocean,ocean,target,upper-left,CVfWC79e,validation - short,TRUE,iOS,2023-03-02,1
2023-03-02T07:21:42.686Z,16812,12,gazelle,dragonfly,dist2,upper-left,CVfWC79e,validation - short,TRUE,iOS,2023-03-02,0
2023-03-02T07:21:50.236Z,5222,13,chanterelle,chanterelle,target,upper-left,CVfWC79e,validation - short,TRUE,iOS,2023-03-02,1
2023-03-02T07:22:08.678Z,17036,14,ruin,ruin,target,lower-right,CVfWC79e,validation - short,TRUE,iOS,2023-03-02,1
2023-03-02T07:22:31.757Z,20991,15,labyrinth,labyrinth,target,lower-left,CVfWC79e,validation - short,TRUE,iOS,2023-03-02,1
2023-03-02T07:22:51.278Z,16570,16,orchid,banner,dist3,lower-right,CVfWC79e,validation - short,TRUE,iOS,2023-03-02,0
2023-03-02T07:22:58.602Z,5538,17,zucchini,zucchini,target,upper-right,CVfWC79e,validation - short,TRUE,iOS,2023-03-02,1
2023-03-02T07:23:05.086Z,5043,18,kayak,kayak,target,upper-left,CVfWC79e,validation - short,TRUE,iOS,2023-03-02,1
2023-03-02T07:23:16.560Z,9773,19,lobster,lobster,target,upper-right,CVfWC79e,validation - short,TRUE,iOS,2023-03-02,1
2023-03-02T07:23:30.856Z,13275,20,carnation,carnation,target,upper-right,CVfWC79e,validation - short,TRUE,iOS,2023-03-02,1
2023-03-02T07:23:39.250Z,6771,21,flounder,flounder,target,lower-right,CVfWC79e,validation - short,TRUE,iOS,2023-03-02,1
2023-03-02T07:23:44.260Z,4281,22,cello,marshmallow,dist2,upper-right,CVfWC79e,validation - short,TRUE,iOS,2023-03-02,0
2023-03-01T13:39:23.937Z,4920,1,eye,eye,target,upper-left,DCFoah7b,validation - short,FALSE,Windows,2023-03-01,1
2023-03-01T13:39:30.721Z,4304,2,carrot,carrot,target,lower-right,DCFoah7b,validation - short,FALSE,Windows,2023-03-01,1
2023-03-01T13:39:36.689Z,4161,3,ant,ant,target,upper-right,DCFoah7b,validation - short,FALSE,Windows,2023-03-01,1
2023-03-01T13:39:42.945Z,4401,4,elk,elk,target,upper-left,DCFoah7b,validation - short,FALSE,Windows,2023-03-01,1
2023-03-01T13:39:55.737Z,11077,5,choir,pipe,dist2,upper-left,DCFoah7b,validation - short,FALSE,Windows,2023-03-01,0
2023-03-01T13:40:00.777Z,3002,6,ventilator,ventilator,target,lower-left,DCFoah7b,validation - short,FALSE,Windows,2023-03-01,1
2023-03-01T13:40:14.617Z,12147,7,arugula,dracula,dist2,upper-left,DCFoah7b,validation - short,FALSE,Windows,2023-03-01,0
2023-03-01T13:40:19.841Z,2443,8,giraffe,giraffe,target,upper-left,DCFoah7b,validation - short,FALSE,Windows,2023-03-01,1
2023-03-01T13:40:25.121Z,3823,9,palmtree,palmtree,target,lower-left,DCFoah7b,validation - short,FALSE,Windows,2023-03-01,1
2023-03-01T13:40:30.042Z,3241,10,pineapple,pineapple,target,lower-right,DCFoah7b,validation - short,FALSE,Windows,2023-03-01,1
2023-03-01T13:40:37.546Z,5249,11,ocean,ocean,target,upper-left,DCFoah7b,validation - short,FALSE,Windows,2023-03-01,1
2023-03-01T13:40:46.979Z,7464,12,gazelle,gazelle,target,lower-right,DCFoah7b,validation - short,FALSE,Windows,2023-03-01,1
2023-03-01T13:40:58.060Z,8930,13,chanterelle,butterfly,dist2,lower-left,DCFoah7b,validation - short,FALSE,Windows,2023-03-01,0
2023-03-01T13:41:07.802Z,7609,14,ruin,ruin,target,lower-right,DCFoah7b,validation - short,FALSE,Windows,2023-03-01,1
2023-03-01T13:41:13.913Z,4710,15,labyrinth,labyrinth,target,lower-left,DCFoah7b,validation - short,FALSE,Windows,2023-03-01,1
2023-03-01T13:41:32.753Z,15566,16,orchid,orchid,target,lower-left,DCFoah7b,validation - short,FALSE,Windows,2023-03-01,1
2023-03-01T13:41:41.329Z,7007,17,zucchini,zucchini,target,upper-right,DCFoah7b,validation - short,FALSE,Windows,2023-03-01,1
2023-03-01T13:41:51.833Z,8967,18,kayak,boomerang,dist3,lower-right,DCFoah7b,validation - short,FALSE,Windows,2023-03-01,0
2023-03-01T13:42:08.634Z,13903,19,lobster,microscope,dist3,upper-left,DCFoah7b,validation - short,FALSE,Windows,2023-03-01,0
2023-03-01T13:42:19.937Z,9595,20,carnation,carnation,target,upper-right,DCFoah7b,validation - short,FALSE,Windows,2023-03-01,1
2023-03-01T13:42:30.889Z,9319,21,flounder,flounder,target,lower-right,DCFoah7b,validation - short,FALSE,Windows,2023-03-01,1
2023-03-01T13:42:36.258Z,3758,22,cello,cello,target,lower-left,DCFoah7b,validation - short,FALSE,Windows,2023-03-01,1
2023-03-01T11:52:14.524Z,4118,1,eye,eye,target,upper-left,DKX5ioaC,validation - short,TRUE,Windows,2023-03-01,1
2023-03-01T11:52:21.523Z,3463,2,carrot,carrot,target,lower-right,DKX5ioaC,validation - short,TRUE,Windows,2023-03-01,1
2023-03-01T11:52:25.557Z,2704,3,ant,ant,target,upper-right,DKX5ioaC,validation - short,TRUE,Windows,2023-03-01,1
2023-03-01T11:52:31.328Z,4076,4,elk,elk,target,upper-left,DKX5ioaC,validation - short,TRUE,Windows,2023-03-01,1
2023-03-01T11:53:02.448Z,29677,5,choir,orchestra,dist1,lower-right,DKX5ioaC,validation - short,TRUE,Windows,2023-03-01,0
2023-03-01T11:53:07.908Z,3291,6,ventilator,ventilator,target,lower-left,DKX5ioaC,validation - short,TRUE,Windows,2023-03-01,1
2023-03-01T11:53:28.405Z,18822,7,arugula,brusselsprouts,dist1,lower-left,DKX5ioaC,validation - short,TRUE,Windows,2023-03-01,0
2023-03-01T11:53:33.306Z,1907,8,giraffe,giraffe,target,upper-left,DKX5ioaC,validation - short,TRUE,Windows,2023-03-01,1
2023-03-01T11:53:38.365Z,3693,9,palmtree,palmtree,target,lower-left,DKX5ioaC,validation - short,TRUE,Windows,2023-03-01,1
2023-03-01T11:53:42.760Z,3122,10,pineapple,pineapple,target,lower-right,DKX5ioaC,validation - short,TRUE,Windows,2023-03-01,1
2023-03-01T11:53:49.109Z,5201,11,ocean,ocean,target,upper-left,DKX5ioaC,validation - short,TRUE,Windows,2023-03-01,1
2023-03-01T11:53:54.591Z,4322,12,gazelle,gazelle,target,lower-right,DKX5ioaC,validation - short,TRUE,Windows,2023-03-01,1
2023-03-01T11:54:21.362Z,24414,13,chanterelle,chanterelle,target,upper-left,DKX5ioaC,validation - short,TRUE,Windows,2023-03-01,1
2023-03-01T11:54:27.129Z,4267,14,ruin,ruin,target,lower-right,DKX5ioaC,validation - short,TRUE,Windows,2023-03-01,1
2023-03-01T11:54:31.842Z,3208,15,labyrinth,labyrinth,target,lower-left,DKX5ioaC,validation - short,TRUE,Windows,2023-03-01,1
2023-03-01T11:54:36.471Z,3422,16,orchid,orchid,target,lower-left,DKX5ioaC,validation - short,TRUE,Windows,2023-03-01,1
2023-03-01T11:54:45.686Z,7987,17,zucchini,zucchini,target,upper-right,DKX5ioaC,validation - short,TRUE,Windows,2023-03-01,1
2023-03-01T11:54:50.425Z,3202,18,kayak,kayak,target,upper-left,DKX5ioaC,validation - short,TRUE,Windows,2023-03-01,1
2023-03-01T11:54:57.503Z,5937,19,lobster,lobster,target,upper-right,DKX5ioaC,validation - short,TRUE,Windows,2023-03-01,1
2023-03-01T11:55:09.220Z,10464,20,carnation,carnation,target,upper-right,DKX5ioaC,validation - short,TRUE,Windows,2023-03-01,1
2023-03-01T11:55:15.000Z,4182,21,flounder,flounder,target,lower-right,DKX5ioaC,validation - short,TRUE,Windows,2023-03-01,1
2023-03-01T11:55:22.271Z,6093,22,cello,cello,target,lower-left,DKX5ioaC,validation - short,TRUE,Windows,2023-03-01,1
2023-03-01T16:06:38.973Z,5185,1,eye,eye,target,upper-left,egxFqLyg,validation - short,TRUE,Mac OS X,2023-03-01,1
2023-03-01T16:06:46.809Z,3866,2,carrot,carrot,target,lower-right,egxFqLyg,validation - short,TRUE,Mac OS X,2023-03-01,1
2023-03-01T16:06:53.609Z,5143,3,ant,ant,target,upper-right,egxFqLyg,validation - short,TRUE,Mac OS X,2023-03-01,1
2023-03-01T16:07:01.178Z,5553,4,elk,elk,target,upper-left,egxFqLyg,validation - short,TRUE,Mac OS X,2023-03-01,1
2023-03-01T16:07:13.143Z,10027,5,choir,choir,target,upper-right,egxFqLyg,validation - short,TRUE,Mac OS X,2023-03-01,1
2023-03-01T16:07:18.658Z,3848,6,ventilator,ventilator,target,lower-left,egxFqLyg,validation - short,TRUE,Mac OS X,2023-03-01,1
2023-03-01T16:07:23.922Z,3522,7,arugula,dracula,dist2,upper-left,egxFqLyg,validation - short,TRUE,Mac OS X,2023-03-01,0
2023-03-01T16:07:28.240Z,2199,8,giraffe,giraffe,target,upper-left,egxFqLyg,validation - short,TRUE,Mac OS X,2023-03-01,1
2023-03-01T16:07:33.311Z,3165,9,palmtree,palmtree,target,lower-left,egxFqLyg,validation - short,TRUE,Mac OS X,2023-03-01,1
2023-03-01T16:07:36.837Z,2127,10,pineapple,pineapple,target,lower-right,egxFqLyg,validation - short,TRUE,Mac OS X,2023-03-01,1
2023-03-01T16:07:44.225Z,6098,11,ocean,river,dist1,lower-left,egxFqLyg,validation - short,TRUE,Mac OS X,2023-03-01,0
2023-03-01T16:07:51.022Z,4997,12,gazelle,dragonfly,dist2,upper-left,egxFqLyg,validation - short,TRUE,Mac OS X,2023-03-01,0
2023-03-01T16:07:57.589Z,4344,13,chanterelle,butterfly,dist2,lower-left,egxFqLyg,validation - short,TRUE,Mac OS X,2023-03-01,0
2023-03-01T16:08:09.564Z,10331,14,ruin,ruin,target,lower-right,egxFqLyg,validation - short,TRUE,Mac OS X,2023-03-01,1
2023-03-01T16:08:14.542Z,3338,15,labyrinth,labyrinth,target,lower-left,egxFqLyg,validation - short,TRUE,Mac OS X,2023-03-01,1
2023-03-01T16:08:22.051Z,6106,16,orchid,orchid,target,lower-left,egxFqLyg,validation - short,TRUE,Mac OS X,2023-03-01,1
2023-03-01T16:08:26.279Z,2978,17,zucchini,broccoli,dist1,lower-right,egxFqLyg,validation - short,TRUE,Mac OS X,2023-03-01,0
2023-03-01T16:08:32.623Z,4068,18,kayak,backpack,dist2,upper-right,egxFqLyg,validation - short,TRUE,Mac OS X,2023-03-01,0
2023-03-01T16:08:47.875Z,13615,19,lobster,crab,dist1,lower-right,egxFqLyg,validation - short,TRUE,Mac OS X,2023-03-01,0
2023-03-01T16:08:57.282Z,5679,20,carnation,tents,dist2,lower-left,egxFqLyg,validation - short,TRUE,Mac OS X,2023-03-01,0
2023-03-01T16:09:12.151Z,13256,21,flounder,flounder,target,lower-right,egxFqLyg,validation - short,TRUE,Mac OS X,2023-03-01,1
2023-03-01T16:09:22.761Z,8394,22,cello,harp,dist1,lower-right,egxFqLyg,validation - short,TRUE,Mac OS X,2023-03-01,0
2023-03-01T13:19:03.380Z,11017,1,eye,eye,target,upper-left,empegrCK,validation - short,FALSE,Windows,2023-03-01,1
2023-03-01T13:19:08.763Z,3700,2,carrot,carrot,target,lower-right,empegrCK,validation - short,FALSE,Windows,2023-03-01,1
2023-03-01T13:19:13.680Z,3033,3,ant,ant,target,upper-right,empegrCK,validation - short,FALSE,Windows,2023-03-01,1
2023-03-01T13:19:20.080Z,5166,4,elk,elk,target,upper-left,empegrCK,validation - short,FALSE,Windows,2023-03-01,1
2023-03-01T13:19:23.247Z,2183,5,choir,choir,target,upper-right,empegrCK,validation - short,FALSE,Windows,2023-03-01,1
2023-03-01T13:19:27.930Z,2950,6,ventilator,ventilator,target,lower-left,empegrCK,validation - short,FALSE,Windows,2023-03-01,1
2023-03-01T13:19:39.331Z,10334,7,arugula,arugula,target,lower-right,empegrCK,validation - short,FALSE,Windows,2023-03-01,1
2023-03-01T13:19:42.847Z,2316,8,giraffe,giraffe,target,upper-left,empegrCK,validation - short,FALSE,Windows,2023-03-01,1
2023-03-01T13:19:47.114Z,2950,9,palmtree,palmtree,target,lower-left,empegrCK,validation - short,FALSE,Windows,2023-03-01,1
2023-03-01T13:19:50.198Z,1850,10,pineapple,pineapple,target,lower-right,empegrCK,validation - short,FALSE,Windows,2023-03-01,1
2023-03-01T13:19:55.564Z,4033,11,ocean,ocean,target,upper-left,empegrCK,validation - short,FALSE,Windows,2023-03-01,1
2023-03-01T13:20:01.331Z,4767,12,gazelle,dragonfly,dist2,upper-left,empegrCK,validation - short,FALSE,Windows,2023-03-01,0
2023-03-01T13:20:14.481Z,11733,13,chanterelle,diamond,dist3,upper-right,empegrCK,validation - short,FALSE,Windows,2023-03-01,0
2023-03-01T13:20:22.915Z,6967,14,ruin,ruin,target,lower-right,empegrCK,validation - short,FALSE,Windows,2023-03-01,1
2023-03-01T13:20:27.098Z,2900,15,labyrinth,labyrinth,target,lower-left,empegrCK,validation - short,FALSE,Windows,2023-03-01,1
2023-03-01T13:20:33.332Z,3400,16,orchid,orchid,target,lower-left,empegrCK,validation - short,FALSE,Windows,2023-03-01,1
2023-03-01T13:20:37.799Z,3351,17,zucchini,zucchini,target,upper-right,empegrCK,validation - short,FALSE,Windows,2023-03-01,1
2023-03-01T13:20:46.932Z,7300,18,kayak,backpack,dist2,upper-right,empegrCK,validation - short,FALSE,Windows,2023-03-01,0
2023-03-01T13:20:51.732Z,3533,19,lobster,lobster,target,upper-right,empegrCK,validation - short,FALSE,Windows,2023-03-01,1
2023-03-01T13:20:59.632Z,6483,20,carnation,tents,dist2,lower-left,empegrCK,validation - short,FALSE,Windows,2023-03-01,0
2023-03-01T13:21:06.682Z,6116,21,flounder,flounder,target,lower-right,empegrCK,validation - short,FALSE,Windows,2023-03-01,1
2023-03-01T13:21:13.316Z,4850,22,cello,harp,dist1,lower-right,empegrCK,validation - short,FALSE,Windows,2023-03-01,0
2023-03-01T13:24:42.267Z,11842,1,eye,eye,target,upper-left,evwq1PME,validation - short,TRUE,Windows,2023-03-01,1
2023-03-01T13:24:50.963Z,6330,2,carrot,carrot,target,lower-right,evwq1PME,validation - short,TRUE,Windows,2023-03-01,1
2023-03-01T13:25:08.107Z,15325,3,ant,ant,target,upper-right,evwq1PME,validation - short,TRUE,Windows,2023-03-01,1
2023-03-01T13:25:26.427Z,16829,4,elk,elk,target,upper-left,evwq1PME,validation - short,TRUE,Windows,2023-03-01,1
2023-03-01T13:25:38.586Z,11041,5,choir,choir,target,upper-right,evwq1PME,validation - short,TRUE,Windows,2023-03-01,1
2023-03-01T13:25:45.403Z,4921,6,ventilator,ventilator,target,lower-left,evwq1PME,validation - short,TRUE,Windows,2023-03-01,1
2023-03-01T13:25:55.555Z,8718,7,arugula,arugula,target,lower-right,evwq1PME,validation - short,TRUE,Windows,2023-03-01,1
2023-03-01T13:26:01.339Z,4240,8,giraffe,giraffe,target,upper-left,evwq1PME,validation - short,TRUE,Windows,2023-03-01,1
2023-03-01T13:26:12.117Z,9513,9,palmtree,cup,dist3,upper-left,evwq1PME,validation - short,TRUE,Windows,2023-03-01,0
2023-03-01T13:26:16.276Z,2892,10,pineapple,pineapple,target,lower-right,evwq1PME,validation - short,TRUE,Windows,2023-03-01,1
2023-03-01T13:26:25.004Z,7342,11,ocean,ocean,target,upper-left,evwq1PME,validation - short,TRUE,Windows,2023-03-01,1
2023-03-01T13:26:34.397Z,7980,12,gazelle,dragonfly,dist2,upper-left,evwq1PME,validation - short,TRUE,Windows,2023-03-01,0
2023-03-01T13:26:46.396Z,9745,13,chanterelle,butterfly,dist2,lower-left,evwq1PME,validation - short,TRUE,Windows,2023-03-01,0
2023-03-01T13:26:57.877Z,10430,14,ruin,fortress,dist1,upper-right,evwq1PME,validation - short,TRUE,Windows,2023-03-01,0
2023-03-01T13:27:11.918Z,13001,15,labyrinth,labyrinth,target,lower-left,evwq1PME,validation - short,TRUE,Windows,2023-03-01,1
2023-03-01T13:27:42.813Z,29829,16,orchid,orchid,target,lower-left,evwq1PME,validation - short,TRUE,Windows,2023-03-01,1
2023-03-01T13:27:48.021Z,3657,17,zucchini,zucchini,target,upper-right,evwq1PME,validation - short,TRUE,Windows,2023-03-01,1
2023-03-01T13:27:59.805Z,10138,18,kayak,kayak,target,upper-left,evwq1PME,validation - short,TRUE,Windows,2023-03-01,1
2023-03-01T13:28:16.669Z,15701,19,lobster,crab,dist1,lower-right,evwq1PME,validation - short,TRUE,Windows,2023-03-01,0
2023-03-01T13:28:29.837Z,12006,20,carnation,compass,dist3,upper-left,evwq1PME,validation - short,TRUE,Windows,2023-03-01,0
2023-03-01T13:28:40.021Z,8974,21,flounder,orca,dist1,lower-left,evwq1PME,validation - short,TRUE,Windows,2023-03-01,0
2023-03-01T13:28:51.853Z,10197,22,cello,landingbridge,dist3,upper-left,evwq1PME,validation - short,TRUE,Windows,2023-03-01,0
2023-03-01T16:06:12.189Z,5463,1,eye,eye,target,upper-left,f1Tffqee,validation - short,TRUE,Mac OS X,2023-03-01,1
2023-03-01T16:06:20.469Z,2700,2,carrot,carrot,target,lower-right,f1Tffqee,validation - short,TRUE,Mac OS X,2023-03-01,1
2023-03-01T16:06:24.655Z,2584,3,ant,ant,target,upper-right,f1Tffqee,validation - short,TRUE,Mac OS X,2023-03-01,1
2023-03-01T16:06:31.516Z,5432,4,elk,elk,target,upper-left,f1Tffqee,validation - short,TRUE,Mac OS X,2023-03-01,1
2023-03-01T16:06:34.703Z,1685,5,choir,choir,target,upper-right,f1Tffqee,validation - short,TRUE,Mac OS X,2023-03-01,1
2023-03-01T16:06:42.679Z,2380,6,ventilator,ventilator,target,lower-left,f1Tffqee,validation - short,TRUE,Mac OS X,2023-03-01,1
2023-03-01T16:06:45.971Z,2300,7,arugula,dracula,dist2,upper-left,f1Tffqee,validation - short,TRUE,Mac OS X,2023-03-01,0
2023-03-01T16:06:55.564Z,5070,8,giraffe,giraffe,target,upper-left,f1Tffqee,validation - short,TRUE,Mac OS X,2023-03-01,1
2023-03-01T16:06:59.482Z,2332,9,palmtree,palmtree,target,lower-left,f1Tffqee,validation - short,TRUE,Mac OS X,2023-03-01,1
2023-03-01T16:07:04.001Z,3356,10,pineapple,pineapple,target,lower-right,f1Tffqee,validation - short,TRUE,Mac OS X,2023-03-01,1
2023-03-01T16:07:08.453Z,3257,11,ocean,ocean,target,upper-left,f1Tffqee,validation - short,TRUE,Mac OS X,2023-03-01,1
2023-03-01T16:07:21.129Z,10753,12,gazelle,gazelle,target,lower-right,f1Tffqee,validation - short,TRUE,Mac OS X,2023-03-01,1
2023-03-01T16:07:27.812Z,5645,13,chanterelle,chanterelle,target,upper-left,f1Tffqee,validation - short,TRUE,Mac OS X,2023-03-01,1
2023-03-01T16:07:38.398Z,6613,14,ruin,ruin,target,lower-right,f1Tffqee,validation - short,TRUE,Mac OS X,2023-03-01,1
2023-03-01T16:07:41.617Z,1732,15,labyrinth,labyrinth,target,lower-left,f1Tffqee,validation - short,TRUE,Mac OS X,2023-03-01,1
2023-03-01T16:07:47.426Z,4847,16,orchid,orchid,target,lower-left,f1Tffqee,validation - short,TRUE,Mac OS X,2023-03-01,1
2023-03-01T16:07:53.855Z,5438,17,zucchini,zucchini,target,upper-right,f1Tffqee,validation - short,TRUE,Mac OS X,2023-03-01,1
2023-03-01T16:08:06.696Z,11339,18,kayak,boomerang,dist3,lower-right,f1Tffqee,validation - short,TRUE,Mac OS X,2023-03-01,0
2023-03-01T16:08:15.280Z,4794,19,lobster,lobster,target,upper-right,f1Tffqee,validation - short,TRUE,Mac OS X,2023-03-01,1
2023-03-01T16:08:27.727Z,10446,20,carnation,violets,dist1,lower-right,f1Tffqee,validation - short,TRUE,Mac OS X,2023-03-01,0
2023-03-01T16:08:40.341Z,9391,21,flounder,flounder,target,lower-right,f1Tffqee,validation - short,TRUE,Mac OS X,2023-03-01,1
2023-03-01T16:08:45.329Z,3741,22,cello,marshmallow,dist2,upper-right,f1Tffqee,validation - short,TRUE,Mac OS X,2023-03-01,0
2023-03-01T17:00:55.661Z,11266,1,eye,eye,target,upper-left,F42BUmp5,validation - short,FALSE,Windows,2023-03-01,1
2023-03-01T17:01:02.321Z,4093,2,carrot,carrot,target,lower-right,F42BUmp5,validation - short,FALSE,Windows,2023-03-01,1
2023-03-01T17:01:08.182Z,3578,3,ant,ant,target,upper-right,F42BUmp5,validation - short,FALSE,Windows,2023-03-01,1
2023-03-01T17:01:14.925Z,4442,4,elk,elk,target,upper-left,F42BUmp5,validation - short,FALSE,Windows,2023-03-01,1
2023-03-01T17:01:28.852Z,11606,5,choir,orchestra,dist1,lower-right,F42BUmp5,validation - short,FALSE,Windows,2023-03-01,0
2023-03-01T17:01:33.660Z,2955,6,ventilator,ventilator,target,lower-left,F42BUmp5,validation - short,FALSE,Windows,2023-03-01,1
2023-03-01T17:01:44.682Z,9229,7,arugula,arugula,target,lower-right,F42BUmp5,validation - short,FALSE,Windows,2023-03-01,1
2023-03-01T17:01:49.361Z,2808,8,giraffe,giraffe,target,upper-left,F42BUmp5,validation - short,FALSE,Windows,2023-03-01,1
2023-03-01T17:01:54.493Z,2666,9,palmtree,palmtree,target,lower-left,F42BUmp5,validation - short,FALSE,Windows,2023-03-01,1
2023-03-01T17:01:59.202Z,3009,10,pineapple,pineapple,target,lower-right,F42BUmp5,validation - short,FALSE,Windows,2023-03-01,1
2023-03-01T17:02:06.839Z,5957,11,ocean,ocean,target,upper-left,F42BUmp5,validation - short,FALSE,Windows,2023-03-01,1
2023-03-01T17:02:13.917Z,4623,12,gazelle,gazelle,target,lower-right,F42BUmp5,validation - short,FALSE,Windows,2023-03-01,1
2023-03-01T17:02:21.299Z,5714,13,chanterelle,chanterelle,target,upper-left,F42BUmp5,validation - short,FALSE,Windows,2023-03-01,1
2023-03-01T17:02:29.353Z,5644,14,ruin,ruin,target,lower-right,F42BUmp5,validation - short,FALSE,Windows,2023-03-01,1
2023-03-01T17:02:33.931Z,2887,15,labyrinth,labyrinth,target,lower-left,F42BUmp5,validation - short,FALSE,Windows,2023-03-01,1
2023-03-01T17:02:39.677Z,3995,16,orchid,orchid,target,lower-left,F42BUmp5,validation - short,FALSE,Windows,2023-03-01,1
2023-03-01T17:02:45.255Z,3926,17,zucchini,zucchini,target,upper-right,F42BUmp5,validation - short,FALSE,Windows,2023-03-01,1
2023-03-01T17:02:53.165Z,5793,18,kayak,kayak,target,upper-left,F42BUmp5,validation - short,FALSE,Windows,2023-03-01,1
2023-03-01T17:02:59.892Z,4163,19,lobster,lobster,target,upper-right,F42BUmp5,validation - short,FALSE,Windows,2023-03-01,1
2023-03-01T17:03:07.921Z,5805,20,carnation,violets,dist1,lower-right,F42BUmp5,validation - short,FALSE,Windows,2023-03-01,0
2023-03-01T17:03:14.491Z,4720,21,flounder,flounder,target,lower-right,F42BUmp5,validation - short,FALSE,Windows,2023-03-01,1
2023-03-01T17:03:29.433Z,13118,22,cello,harp,dist1,lower-right,F42BUmp5,validation - short,FALSE,Windows,2023-03-01,0
2023-03-01T16:38:51.666Z,4828,1,eye,eye,target,upper-left,FcTGCLeN,validation - short,TRUE,Windows,2023-03-01,1
2023-03-01T16:38:59.775Z,6195,2,carrot,carrot,target,lower-right,FcTGCLeN,validation - short,TRUE,Windows,2023-03-01,1
2023-03-01T16:39:06.536Z,3863,3,ant,ant,target,upper-right,FcTGCLeN,validation - short,TRUE,Windows,2023-03-01,1
2023-03-01T16:39:13.584Z,4432,4,elk,elk,target,upper-left,FcTGCLeN,validation - short,TRUE,Windows,2023-03-01,1
2023-03-01T16:39:19.423Z,4125,5,choir,choir,target,upper-right,FcTGCLeN,validation - short,TRUE,Windows,2023-03-01,1
2023-03-01T16:39:25.621Z,3925,6,ventilator,ventilator,target,lower-left,FcTGCLeN,validation - short,TRUE,Windows,2023-03-01,1
2023-03-01T16:39:31.499Z,4075,7,arugula,dracula,dist2,upper-left,FcTGCLeN,validation - short,TRUE,Windows,2023-03-01,0
2023-03-01T16:39:35.833Z,2566,8,giraffe,giraffe,target,upper-left,FcTGCLeN,validation - short,TRUE,Windows,2023-03-01,1
2023-03-01T16:39:40.563Z,2836,9,palmtree,palmtree,target,lower-left,FcTGCLeN,validation - short,TRUE,Windows,2023-03-01,1
2023-03-01T16:39:45.007Z,2806,10,pineapple,pineapple,target,lower-right,FcTGCLeN,validation - short,TRUE,Windows,2023-03-01,1
2023-03-01T16:39:51.636Z,4606,11,ocean,ocean,target,upper-left,FcTGCLeN,validation - short,TRUE,Windows,2023-03-01,1
2023-03-01T16:39:58.497Z,4964,12,gazelle,gazelle,target,lower-right,FcTGCLeN,validation - short,TRUE,Windows,2023-03-01,1
2023-03-01T16:40:05.832Z,5911,13,chanterelle,chanterelle,target,upper-left,FcTGCLeN,validation - short,TRUE,Windows,2023-03-01,1
2023-03-01T16:40:16.343Z,8877,14,ruin,ruin,target,lower-right,FcTGCLeN,validation - short,TRUE,Windows,2023-03-01,1
2023-03-01T16:40:21.540Z,3482,15,labyrinth,labyrinth,target,lower-left,FcTGCLeN,validation - short,TRUE,Windows,2023-03-01,1
2023-03-01T16:40:28.074Z,4983,16,orchid,orchid,target,lower-left,FcTGCLeN,validation - short,TRUE,Windows,2023-03-01,1
2023-03-01T16:40:33.690Z,3729,17,zucchini,zucchini,target,upper-right,FcTGCLeN,validation - short,TRUE,Windows,2023-03-01,1
2023-03-01T16:40:38.815Z,3449,18,kayak,kayak,target,upper-left,FcTGCLeN,validation - short,TRUE,Windows,2023-03-01,1
2023-03-01T16:40:48.146Z,7479,19,lobster,microscope,dist3,upper-left,FcTGCLeN,validation - short,TRUE,Windows,2023-03-01,0
2023-03-01T16:41:01.142Z,10675,20,carnation,violets,dist1,lower-right,FcTGCLeN,validation - short,TRUE,Windows,2023-03-01,0
2023-03-01T16:41:07.946Z,5256,21,flounder,elderberry,dist2,upper-left,FcTGCLeN,validation - short,TRUE,Windows,2023-03-01,0
2023-03-01T16:41:16.603Z,5637,22,cello,harp,dist1,lower-right,FcTGCLeN,validation - short,TRUE,Windows,2023-03-01,0
2023-03-01T19:20:28.418Z,6033,1,eye,eye,target,upper-left,FNATTW84,validation - short,TRUE,iOS,2023-03-01,1
2023-03-01T19:20:44.337Z,3369,2,carrot,carrot,target,lower-right,FNATTW84,validation - short,TRUE,iOS,2023-03-01,1
2023-03-01T19:20:51.546Z,3847,3,ant,ant,target,upper-right,FNATTW84,validation - short,TRUE,iOS,2023-03-01,1
2023-03-01T19:20:56.848Z,3042,4,elk,elk,target,upper-left,FNATTW84,validation - short,TRUE,iOS,2023-03-01,1
2023-03-01T19:21:05.667Z,6884,5,choir,choir,target,upper-right,FNATTW84,validation - short,TRUE,iOS,2023-03-01,1
2023-03-01T19:21:09.972Z,2481,6,ventilator,ventilator,target,lower-left,FNATTW84,validation - short,TRUE,iOS,2023-03-01,1
2023-03-01T19:21:13.640Z,2461,7,arugula,dracula,dist2,upper-left,FNATTW84,validation - short,TRUE,iOS,2023-03-01,0
2023-03-01T19:21:17.461Z,2444,8,giraffe,giraffe,target,upper-left,FNATTW84,validation - short,TRUE,iOS,2023-03-01,1
2023-03-01T19:21:21.476Z,2771,9,palmtree,palmtree,target,lower-left,FNATTW84,validation - short,TRUE,iOS,2023-03-01,1
2023-03-01T19:21:25.353Z,2075,10,pineapple,watermelon,dist1,lower-left,FNATTW84,validation - short,TRUE,iOS,2023-03-01,0
2023-03-01T19:21:30.398Z,3888,11,ocean,pelican,dist2,lower-right,FNATTW84,validation - short,TRUE,iOS,2023-03-01,0
2023-03-01T19:21:35.804Z,4237,12,gazelle,dragonfly,dist2,upper-left,FNATTW84,validation - short,TRUE,iOS,2023-03-01,0
2023-03-01T19:21:41.734Z,3897,13,chanterelle,chanterelle,target,upper-left,FNATTW84,validation - short,TRUE,iOS,2023-03-01,1
2023-03-01T19:21:46.910Z,4080,14,ruin,ruin,target,lower-right,FNATTW84,validation - short,TRUE,iOS,2023-03-01,1
2023-03-01T19:21:50.477Z,2211,15,labyrinth,labyrinth,target,lower-left,FNATTW84,validation - short,TRUE,iOS,2023-03-01,1
2023-03-01T19:21:55.308Z,3093,16,orchid,shrub,dist1,upper-left,FNATTW84,validation - short,TRUE,iOS,2023-03-01,0
2023-03-01T19:21:59.918Z,3468,17,zucchini,zucchini,target,upper-right,FNATTW84,validation - short,TRUE,iOS,2023-03-01,1
2023-03-01T19:22:03.724Z,2593,18,kayak,boomerang,dist3,lower-right,FNATTW84,validation - short,TRUE,iOS,2023-03-01,0
2023-03-01T19:22:11.771Z,6942,19,lobster,lobster,target,upper-right,FNATTW84,validation - short,TRUE,iOS,2023-03-01,1
2023-03-01T19:22:15.142Z,2477,20,carnation,violets,dist1,lower-right,FNATTW84,validation - short,TRUE,iOS,2023-03-01,0
2023-03-01T19:22:20.457Z,4033,21,flounder,flounder,target,lower-right,FNATTW84,validation - short,TRUE,iOS,2023-03-01,1
2023-03-01T19:22:25.227Z,3283,22,cello,marshmallow,dist2,upper-right,FNATTW84,validation - short,TRUE,iOS,2023-03-01,0
2023-03-02T07:54:20.379Z,8471,1,eye,eye,target,upper-left,FNWAif53,validation - short,FALSE,Windows,2023-03-02,1
2023-03-02T07:54:33.130Z,10383,2,carrot,carrot,target,lower-right,FNWAif53,validation - short,FALSE,Windows,2023-03-02,1
2023-03-02T07:54:39.779Z,4831,3,ant,ant,target,upper-right,FNWAif53,validation - short,FALSE,Windows,2023-03-02,1
2023-03-02T07:54:52.860Z,11009,4,elk,mammoth,dist1,lower-left,FNWAif53,validation - short,FALSE,Windows,2023-03-02,0
2023-03-02T07:55:02.081Z,7329,5,choir,choir,target,upper-right,FNWAif53,validation - short,FALSE,Windows,2023-03-02,1
2023-03-02T07:55:10.304Z,4275,6,ventilator,ventilator,target,lower-left,FNWAif53,validation - short,FALSE,Windows,2023-03-02,1
2023-03-02T07:55:16.128Z,4042,7,arugula,arugula,target,lower-right,FNWAif53,validation - short,FALSE,Windows,2023-03-02,1
2023-03-02T07:55:20.590Z,2871,8,giraffe,giraffe,target,upper-left,FNWAif53,validation - short,FALSE,Windows,2023-03-02,1
2023-03-02T07:55:27.075Z,4658,9,palmtree,drinkingstraws,dist2,lower-right,FNWAif53,validation - short,FALSE,Windows,2023-03-02,0
2023-03-02T07:55:34.524Z,4519,10,pineapple,pineapple,target,lower-right,FNWAif53,validation - short,FALSE,Windows,2023-03-02,1
2023-03-02T07:55:42.647Z,6607,11,ocean,factory,dist3,upper-right,FNWAif53,validation - short,FALSE,Windows,2023-03-02,0
2023-03-02T07:55:50.352Z,4565,12,gazelle,gazelle,target,lower-right,FNWAif53,validation - short,FALSE,Windows,2023-03-02,1
2023-03-02T07:55:57.572Z,4933,13,chanterelle,butterfly,dist2,lower-left,FNWAif53,validation - short,FALSE,Windows,2023-03-02,0
2023-03-02T07:56:13.152Z,13677,14,ruin,ruin,target,lower-right,FNWAif53,validation - short,FALSE,Windows,2023-03-02,1
2023-03-02T07:56:29.044Z,13513,15,labyrinth,rollercoaster,dist1,upper-left,FNWAif53,validation - short,FALSE,Windows,2023-03-02,0
2023-03-02T07:56:38.893Z,8075,16,orchid,toe,dist2,upper-right,FNWAif53,validation - short,FALSE,Windows,2023-03-02,0
2023-03-02T07:56:50.479Z,8497,17,zucchini,zucchini,target,upper-right,FNWAif53,validation - short,FALSE,Windows,2023-03-02,1
2023-03-02T07:57:04.213Z,9938,18,kayak,kayak,target,upper-left,FNWAif53,validation - short,FALSE,Windows,2023-03-02,1
2023-03-02T07:57:19.691Z,13294,19,lobster,lobster,target,upper-right,FNWAif53,validation - short,FALSE,Windows,2023-03-02,1
2023-03-02T07:57:36.117Z,14233,20,carnation,tents,dist2,lower-left,FNWAif53,validation - short,FALSE,Windows,2023-03-02,0
2023-03-02T07:57:43.926Z,5944,21,flounder,flounder,target,lower-right,FNWAif53,validation - short,FALSE,Windows,2023-03-02,1
2023-03-02T07:57:49.703Z,3736,22,cello,harp,dist1,lower-right,FNWAif53,validation - short,FALSE,Windows,2023-03-02,0
2023-03-01T15:37:27.497Z,4835,1,eye,eye,target,upper-left,GgviFZ2y,validation - short,FALSE,Windows,2023-03-01,1
2023-03-01T15:37:32.689Z,3482,2,carrot,carrot,target,lower-right,GgviFZ2y,validation - short,FALSE,Windows,2023-03-01,1
2023-03-01T15:37:44.006Z,6643,3,ant,ant,target,upper-right,GgviFZ2y,validation - short,FALSE,Windows,2023-03-01,1
2023-03-01T15:37:50.227Z,4502,4,elk,elk,target,upper-left,GgviFZ2y,validation - short,FALSE,Windows,2023-03-01,1
2023-03-01T15:38:00.594Z,8731,5,choir,orchestra,dist1,lower-right,GgviFZ2y,validation - short,FALSE,Windows,2023-03-01,0
2023-03-01T15:38:07.970Z,4883,6,ventilator,ventilator,target,lower-left,GgviFZ2y,validation - short,FALSE,Windows,2023-03-01,1
2023-03-01T15:38:21.468Z,11291,7,arugula,brusselsprouts,dist1,lower-left,GgviFZ2y,validation - short,FALSE,Windows,2023-03-01,0
2023-03-01T15:38:27.688Z,4747,8,giraffe,giraffe,target,upper-left,GgviFZ2y,validation - short,FALSE,Windows,2023-03-01,1
2023-03-01T15:38:32.342Z,3544,9,palmtree,palmtree,target,lower-left,GgviFZ2y,validation - short,FALSE,Windows,2023-03-01,1
2023-03-01T15:38:37.022Z,3698,10,pineapple,pineapple,target,lower-right,GgviFZ2y,validation - short,FALSE,Windows,2023-03-01,1
2023-03-01T15:38:48.872Z,8597,11,ocean,ocean,target,upper-left,GgviFZ2y,validation - short,FALSE,Windows,2023-03-01,1
2023-03-01T15:38:56.525Z,6269,12,gazelle,dragonfly,dist2,upper-left,GgviFZ2y,validation - short,FALSE,Windows,2023-03-01,0
2023-03-01T15:39:04.701Z,6765,13,chanterelle,chanterelle,target,upper-left,GgviFZ2y,validation - short,FALSE,Windows,2023-03-01,1
2023-03-01T15:39:13.125Z,7037,14,ruin,ruin,target,lower-right,GgviFZ2y,validation - short,FALSE,Windows,2023-03-01,1
2023-03-01T15:39:20.813Z,6380,15,labyrinth,labyrinth,target,lower-left,GgviFZ2y,validation - short,FALSE,Windows,2023-03-01,1
2023-03-01T15:39:28.778Z,6718,16,orchid,banner,dist3,lower-right,GgviFZ2y,validation - short,FALSE,Windows,2023-03-01,0
2023-03-01T15:39:36.527Z,5443,17,zucchini,zucchini,target,upper-right,GgviFZ2y,validation - short,FALSE,Windows,2023-03-01,1
2023-03-01T15:39:44.266Z,5163,18,kayak,boomerang,dist3,lower-right,GgviFZ2y,validation - short,FALSE,Windows,2023-03-01,0
2023-03-01T15:39:51.721Z,6054,19,lobster,lobster,target,upper-right,GgviFZ2y,validation - short,FALSE,Windows,2023-03-01,1
2023-03-01T15:40:03.159Z,10054,20,carnation,carnation,target,upper-right,GgviFZ2y,validation - short,FALSE,Windows,2023-03-01,1
2023-03-01T15:40:09.233Z,4913,21,flounder,flounder,target,lower-right,GgviFZ2y,validation - short,FALSE,Windows,2023-03-01,1
2023-03-01T15:40:16.324Z,6069,22,cello,harp,dist1,lower-right,GgviFZ2y,validation - short,FALSE,Windows,2023-03-01,0
2023-03-01T10:31:08.476Z,4309,1,eye,eye,target,upper-left,h2aubna7,validation - short,TRUE,Android,2023-03-01,1
2023-03-01T10:31:13.835Z,3510,2,carrot,carrot,target,lower-right,h2aubna7,validation - short,TRUE,Android,2023-03-01,1
2023-03-01T10:31:17.961Z,3198,3,ant,ant,target,upper-right,h2aubna7,validation - short,TRUE,Android,2023-03-01,1
2023-03-01T10:31:24.868Z,5877,4,elk,skeleton,dist3,upper-right,h2aubna7,validation - short,TRUE,Android,2023-03-01,0
2023-03-01T10:31:34.938Z,8576,5,choir,orchestra,dist1,lower-right,h2aubna7,validation - short,TRUE,Android,2023-03-01,0
2023-03-01T10:31:40.038Z,3849,6,ventilator,ventilator,target,lower-left,h2aubna7,validation - short,TRUE,Android,2023-03-01,1
2023-03-01T10:31:44.647Z,3029,7,arugula,dracula,dist2,upper-left,h2aubna7,validation - short,TRUE,Android,2023-03-01,0
2023-03-01T10:31:51.119Z,4496,8,giraffe,giraffe,target,upper-left,h2aubna7,validation - short,TRUE,Android,2023-03-01,1
2023-03-01T10:31:54.827Z,2785,9,palmtree,palmtree,target,lower-left,h2aubna7,validation - short,TRUE,Android,2023-03-01,1
2023-03-01T10:32:01.085Z,5198,10,pineapple,pineapple,target,lower-right,h2aubna7,validation - short,TRUE,Android,2023-03-01,1
2023-03-01T10:32:06.024Z,4015,11,ocean,ocean,target,upper-left,h2aubna7,validation - short,TRUE,Android,2023-03-01,1
2023-03-01T10:32:13.859Z,6199,12,gazelle,gazelle,target,lower-right,h2aubna7,validation - short,TRUE,Android,2023-03-01,1
2023-03-01T10:32:20.425Z,5451,13,chanterelle,chanterelle,target,upper-left,h2aubna7,validation - short,TRUE,Android,2023-03-01,1
2023-03-01T10:32:27.381Z,6004,14,ruin,goalkeeper,dist3,upper-left,h2aubna7,validation - short,TRUE,Android,2023-03-01,0
2023-03-01T10:32:34.950Z,5562,15,labyrinth,labyrinth,target,lower-left,h2aubna7,validation - short,TRUE,Android,2023-03-01,1
2023-03-01T10:32:43.083Z,7413,16,orchid,orchid,target,lower-left,h2aubna7,validation - short,TRUE,Android,2023-03-01,1
2023-03-01T10:32:48.169Z,3672,17,zucchini,bikini,dist2,upper-left,h2aubna7,validation - short,TRUE,Android,2023-03-01,0
2023-03-01T10:32:53.693Z,4515,18,kayak,kayak,target,upper-left,h2aubna7,validation - short,TRUE,Android,2023-03-01,1
2023-03-01T10:33:00.270Z,5663,19,lobster,lobster,target,upper-right,h2aubna7,validation - short,TRUE,Android,2023-03-01,1
2023-03-01T10:33:07.738Z,5833,20,carnation,violets,dist1,lower-right,h2aubna7,validation - short,TRUE,Android,2023-03-01,0
2023-03-01T10:33:11.564Z,3061,21,flounder,pyramid,dist3,upper-right,h2aubna7,validation - short,TRUE,Android,2023-03-01,0
2023-03-01T10:33:18.980Z,5344,22,cello,harp,dist1,lower-right,h2aubna7,validation - short,TRUE,Android,2023-03-01,0
2023-03-01T18:19:36.112Z,8921,1,eye,eye,target,upper-left,H6rND6kg,validation - short,FALSE,Windows,2023-03-01,1
2023-03-01T18:19:43.952Z,4469,2,carrot,carrot,target,lower-right,H6rND6kg,validation - short,FALSE,Windows,2023-03-01,1
2023-03-01T18:19:48.785Z,3711,3,ant,ant,target,upper-right,H6rND6kg,validation - short,FALSE,Windows,2023-03-01,1
2023-03-01T18:19:54.375Z,4437,4,elk,elk,target,upper-left,H6rND6kg,validation - short,FALSE,Windows,2023-03-01,1
2023-03-01T18:20:02.392Z,6718,5,choir,choir,target,upper-right,H6rND6kg,validation - short,FALSE,Windows,2023-03-01,1
2023-03-01T18:20:07.087Z,3339,6,ventilator,ventilator,target,lower-left,H6rND6kg,validation - short,FALSE,Windows,2023-03-01,1
2023-03-01T18:20:17.919Z,9876,7,arugula,arugula,target,lower-right,H6rND6kg,validation - short,FALSE,Windows,2023-03-01,1
2023-03-01T18:20:21.663Z,2765,8,giraffe,giraffe,target,upper-left,H6rND6kg,validation - short,FALSE,Windows,2023-03-01,1
2023-03-01T18:20:26.984Z,4404,9,palmtree,palmtree,target,lower-left,H6rND6kg,validation - short,FALSE,Windows,2023-03-01,1
2023-03-01T18:20:31.205Z,2633,10,pineapple,pineapple,target,lower-right,H6rND6kg,validation - short,FALSE,Windows,2023-03-01,1
2023-03-01T18:20:37.391Z,4803,11,ocean,ocean,target,upper-left,H6rND6kg,validation - short,FALSE,Windows,2023-03-01,1
2023-03-01T18:20:44.295Z,5873,12,gazelle,dragonfly,dist2,upper-left,H6rND6kg,validation - short,FALSE,Windows,2023-03-01,0
2023-03-01T18:20:50.287Z,4895,13,chanterelle,chanterelle,target,upper-left,H6rND6kg,validation - short,FALSE,Windows,2023-03-01,1
2023-03-01T18:20:56.655Z,5401,14,ruin,ruin,target,lower-right,H6rND6kg,validation - short,FALSE,Windows,2023-03-01,1
2023-03-01T18:21:01.498Z,3681,15,labyrinth,labyrinth,target,lower-left,H6rND6kg,validation - short,FALSE,Windows,2023-03-01,1
2023-03-01T18:21:06.313Z,3879,16,orchid,orchid,target,lower-left,H6rND6kg,validation - short,FALSE,Windows,2023-03-01,1
2023-03-01T18:21:10.767Z,3393,17,zucchini,zucchini,target,upper-right,H6rND6kg,validation - short,FALSE,Windows,2023-03-01,1
2023-03-01T18:21:15.287Z,3406,18,kayak,kayak,target,upper-left,H6rND6kg,validation - short,FALSE,Windows,2023-03-01,1
2023-03-01T18:21:19.442Z,3007,19,lobster,lobster,target,upper-right,H6rND6kg,validation - short,FALSE,Windows,2023-03-01,1
2023-03-01T18:21:23.718Z,3111,20,carnation,carnation,target,upper-right,H6rND6kg,validation - short,FALSE,Windows,2023-03-01,1
2023-03-01T18:21:28.567Z,3844,21,flounder,flounder,target,lower-right,H6rND6kg,validation - short,FALSE,Windows,2023-03-01,1
2023-03-01T18:21:34.431Z,4984,22,cello,marshmallow,dist2,upper-right,H6rND6kg,validation - short,FALSE,Windows,2023-03-01,0
2023-03-01T18:05:24.720Z,3140,1,eye,eye,target,upper-left,HGZDFhgo,validation - short,TRUE,Android,2023-03-01,1
2023-03-01T18:05:30.608Z,4291,2,carrot,carrot,target,lower-right,HGZDFhgo,validation - short,TRUE,Android,2023-03-01,1
2023-03-01T18:05:33.924Z,2355,3,ant,ant,target,upper-right,HGZDFhgo,validation - short,TRUE,Android,2023-03-01,1
2023-03-01T18:05:38.437Z,3698,4,elk,elk,target,upper-left,HGZDFhgo,validation - short,TRUE,Android,2023-03-01,1
2023-03-01T18:05:46.433Z,7308,5,choir,choir,target,upper-right,HGZDFhgo,validation - short,TRUE,Android,2023-03-01,1
2023-03-01T18:05:49.380Z,2059,6,ventilator,ventilator,target,lower-left,HGZDFhgo,validation - short,TRUE,Android,2023-03-01,1
2023-03-01T18:05:53.465Z,3291,7,arugula,arugula,target,lower-right,HGZDFhgo,validation - short,TRUE,Android,2023-03-01,1
2023-03-01T18:05:57.536Z,1590,8,giraffe,giraffe,target,upper-left,HGZDFhgo,validation - short,TRUE,Android,2023-03-01,1
2023-03-01T18:06:00.102Z,1764,9,palmtree,palmtree,target,lower-left,HGZDFhgo,validation - short,TRUE,Android,2023-03-01,1
2023-03-01T18:06:02.614Z,1544,10,pineapple,pineapple,target,lower-right,HGZDFhgo,validation - short,TRUE,Android,2023-03-01,1
2023-03-01T18:06:07.856Z,4380,11,ocean,ocean,target,upper-left,HGZDFhgo,validation - short,TRUE,Android,2023-03-01,1
2023-03-01T18:06:15.351Z,5106,12,gazelle,gazelle,target,lower-right,HGZDFhgo,validation - short,TRUE,Android,2023-03-01,1
2023-03-01T18:06:20.697Z,3415,13,chanterelle,chanterelle,target,upper-left,HGZDFhgo,validation - short,TRUE,Android,2023-03-01,1
2023-03-01T18:06:28.169Z,3937,14,ruin,ruin,target,lower-right,HGZDFhgo,validation - short,TRUE,Android,2023-03-01,1
2023-03-01T18:06:32.619Z,2221,15,labyrinth,labyrinth,target,lower-left,HGZDFhgo,validation - short,TRUE,Android,2023-03-01,1
2023-03-01T18:06:38.312Z,4864,16,orchid,orchid,target,lower-left,HGZDFhgo,validation - short,TRUE,Android,2023-03-01,1
2023-03-01T18:06:42.440Z,2435,17,zucchini,zucchini,target,upper-right,HGZDFhgo,validation - short,TRUE,Android,2023-03-01,1
2023-03-01T18:06:45.104Z,1863,18,kayak,kayak,target,upper-left,HGZDFhgo,validation - short,TRUE,Android,2023-03-01,1
2023-03-01T18:06:47.965Z,1686,19,lobster,lobster,target,upper-right,HGZDFhgo,validation - short,TRUE,Android,2023-03-01,1
2023-03-01T18:06:55.365Z,3513,20,carnation,violets,dist1,lower-right,HGZDFhgo,validation - short,TRUE,Android,2023-03-01,0
2023-03-01T18:07:01.792Z,2196,21,flounder,flounder,target,lower-right,HGZDFhgo,validation - short,TRUE,Android,2023-03-01,1
2023-03-01T18:07:07.226Z,3688,22,cello,cello,target,lower-left,HGZDFhgo,validation - short,TRUE,Android,2023-03-01,1
2023-03-01T14:29:06.735Z,3635,1,eye,eye,target,upper-left,hKL3N2PH,validation - short,TRUE,Mac OS X,2023-03-01,1
2023-03-01T14:29:15.429Z,5682,2,carrot,carrot,target,lower-right,hKL3N2PH,validation - short,TRUE,Mac OS X,2023-03-01,1
2023-03-01T14:29:20.513Z,3164,3,ant,ant,target,upper-right,hKL3N2PH,validation - short,TRUE,Mac OS X,2023-03-01,1
2023-03-01T14:29:25.179Z,3172,4,elk,elk,target,upper-left,hKL3N2PH,validation - short,TRUE,Mac OS X,2023-03-01,1
2023-03-01T14:30:00.350Z,32188,5,choir,choir,target,upper-right,hKL3N2PH,validation - short,TRUE,Mac OS X,2023-03-01,1
2023-03-01T14:30:05.025Z,3031,6,ventilator,ventilator,target,lower-left,hKL3N2PH,validation - short,TRUE,Mac OS X,2023-03-01,1
2023-03-01T14:30:10.238Z,3948,7,arugula,arugula,target,lower-right,hKL3N2PH,validation - short,TRUE,Mac OS X,2023-03-01,1
2023-03-01T14:30:13.760Z,2153,8,giraffe,giraffe,target,upper-left,hKL3N2PH,validation - short,TRUE,Mac OS X,2023-03-01,1
2023-03-01T14:30:17.014Z,2059,9,palmtree,palmtree,target,lower-left,hKL3N2PH,validation - short,TRUE,Mac OS X,2023-03-01,1
2023-03-01T14:30:20.553Z,1984,10,pineapple,pineapple,target,lower-right,hKL3N2PH,validation - short,TRUE,Mac OS X,2023-03-01,1
2023-03-01T14:30:37.002Z,15078,11,ocean,ocean,target,upper-left,hKL3N2PH,validation - short,TRUE,Mac OS X,2023-03-01,1
2023-03-01T14:30:47.342Z,6557,12,gazelle,gazelle,target,lower-right,hKL3N2PH,validation - short,TRUE,Mac OS X,2023-03-01,1
2023-03-01T14:30:53.113Z,4569,13,chanterelle,chanterelle,target,upper-left,hKL3N2PH,validation - short,TRUE,Mac OS X,2023-03-01,1
2023-03-01T14:30:59.761Z,5272,14,ruin,ruin,target,lower-right,hKL3N2PH,validation - short,TRUE,Mac OS X,2023-03-01,1
2023-03-01T14:31:05.139Z,3027,15,labyrinth,labyrinth,target,lower-left,hKL3N2PH,validation - short,TRUE,Mac OS X,2023-03-01,1
2023-03-01T14:31:11.820Z,4406,16,orchid,orchid,target,lower-left,hKL3N2PH,validation - short,TRUE,Mac OS X,2023-03-01,1
2023-03-01T14:31:15.386Z,2402,17,zucchini,zucchini,target,upper-right,hKL3N2PH,validation - short,TRUE,Mac OS X,2023-03-01,1
2023-03-01T14:31:19.363Z,2638,18,kayak,kayak,target,upper-left,hKL3N2PH,validation - short,TRUE,Mac OS X,2023-03-01,1
2023-03-01T14:31:28.524Z,7851,19,lobster,lobster,target,upper-right,hKL3N2PH,validation - short,TRUE,Mac OS X,2023-03-01,1
2023-03-01T14:31:45.474Z,15203,20,carnation,violets,dist1,lower-right,hKL3N2PH,validation - short,TRUE,Mac OS X,2023-03-01,0
2023-03-01T14:31:53.936Z,6235,21,flounder,flounder,target,lower-right,hKL3N2PH,validation - short,TRUE,Mac OS X,2023-03-01,1
2023-03-01T14:32:08.625Z,13032,22,cello,harp,dist1,lower-right,hKL3N2PH,validation - short,TRUE,Mac OS X,2023-03-01,0
2023-03-01T14:42:46.915Z,3743,1,eye,eye,target,upper-left,hLitdofc,validation - short,TRUE,Android,2023-03-01,1
2023-03-01T14:42:53.714Z,3471,2,carrot,carrot,target,lower-right,hLitdofc,validation - short,TRUE,Android,2023-03-01,1
2023-03-01T14:42:59.210Z,3328,3,ant,ant,target,upper-right,hLitdofc,validation - short,TRUE,Android,2023-03-01,1
2023-03-01T14:43:04.604Z,3186,4,elk,elk,target,upper-left,hLitdofc,validation - short,TRUE,Android,2023-03-01,1
2023-03-01T14:43:46.907Z,39530,5,choir,choir,target,upper-right,hLitdofc,validation - short,TRUE,Android,2023-03-01,1
2023-03-01T14:43:52.294Z,3208,6,ventilator,ventilator,target,lower-left,hLitdofc,validation - short,TRUE,Android,2023-03-01,1
2023-03-01T14:44:21.509Z,26813,7,arugula,brusselsprouts,dist1,lower-left,hLitdofc,validation - short,TRUE,Android,2023-03-01,0
2023-03-01T14:44:27.143Z,3097,8,giraffe,giraffe,target,upper-left,hLitdofc,validation - short,TRUE,Android,2023-03-01,1
2023-03-01T14:44:31.136Z,2100,9,palmtree,palmtree,target,lower-left,hLitdofc,validation - short,TRUE,Android,2023-03-01,1
2023-03-01T14:44:34.684Z,1653,10,pineapple,pineapple,target,lower-right,hLitdofc,validation - short,TRUE,Android,2023-03-01,1
2023-03-01T14:44:40.735Z,4501,11,ocean,ocean,target,upper-left,hLitdofc,validation - short,TRUE,Android,2023-03-01,1
2023-03-01T14:44:48.662Z,5597,12,gazelle,gazelle,target,lower-right,hLitdofc,validation - short,TRUE,Android,2023-03-01,1
2023-03-01T14:45:01.364Z,10840,13,chanterelle,chanterelle,target,upper-left,hLitdofc,validation - short,TRUE,Android,2023-03-01,1
2023-03-01T14:45:15.288Z,11777,14,ruin,ruin,target,lower-right,hLitdofc,validation - short,TRUE,Android,2023-03-01,1
2023-03-01T14:45:19.371Z,1981,15,labyrinth,labyrinth,target,lower-left,hLitdofc,validation - short,TRUE,Android,2023-03-01,1
2023-03-01T14:45:27.145Z,6095,16,orchid,orchid,target,lower-left,hLitdofc,validation - short,TRUE,Android,2023-03-01,1
2023-03-01T14:45:34.313Z,5077,17,zucchini,zucchini,target,upper-right,hLitdofc,validation - short,TRUE,Android,2023-03-01,1
2023-03-01T14:46:04.275Z,28176,18,kayak,kayak,target,upper-left,hLitdofc,validation - short,TRUE,Android,2023-03-01,1
2023-03-01T14:46:10.042Z,2993,19,lobster,lobster,target,upper-right,hLitdofc,validation - short,TRUE,Android,2023-03-01,1
2023-03-01T14:46:41.238Z,29243,20,carnation,violets,dist1,lower-right,hLitdofc,validation - short,TRUE,Android,2023-03-01,0
2023-03-01T14:46:46.718Z,3059,21,flounder,flounder,target,lower-right,hLitdofc,validation - short,TRUE,Android,2023-03-01,1
2023-03-01T14:46:53.915Z,5335,22,cello,harp,dist1,lower-right,hLitdofc,validation - short,TRUE,Android,2023-03-01,0
2023-02-28T13:55:24.178Z,7648,1,eye,eye,target,upper-left,i71hFFU2,validation - short,FALSE,Mac OS X,2023-02-28,1
2023-02-28T13:55:27.593Z,2381,2,carrot,carrot,target,lower-right,i71hFFU2,validation - short,FALSE,Mac OS X,2023-02-28,1
2023-02-28T13:55:31.009Z,2459,3,ant,ant,target,upper-right,i71hFFU2,validation - short,FALSE,Mac OS X,2023-02-28,1
2023-02-28T13:55:34.528Z,2467,4,elk,elk,target,upper-left,i71hFFU2,validation - short,FALSE,Mac OS X,2023-02-28,1
2023-02-28T13:55:36.544Z,994,5,choir,choir,target,upper-right,i71hFFU2,validation - short,FALSE,Mac OS X,2023-02-28,1
2023-02-28T13:55:39.461Z,1711,6,ventilator,ventilator,target,lower-left,i71hFFU2,validation - short,FALSE,Mac OS X,2023-02-28,1
2023-02-28T13:55:41.628Z,1078,7,arugula,arugula,target,lower-right,i71hFFU2,validation - short,FALSE,Mac OS X,2023-02-28,1
2023-02-28T13:55:43.729Z,915,8,giraffe,giraffe,target,upper-left,i71hFFU2,validation - short,FALSE,Mac OS X,2023-02-28,1
2023-02-28T13:55:45.777Z,949,9,palmtree,palmtree,target,lower-left,i71hFFU2,validation - short,FALSE,Mac OS X,2023-02-28,1
2023-02-28T13:55:47.995Z,1227,10,pineapple,pineapple,target,lower-right,i71hFFU2,validation - short,FALSE,Mac OS X,2023-02-28,1
2023-02-28T13:55:52.347Z,3364,11,ocean,ocean,target,upper-left,i71hFFU2,validation - short,FALSE,Mac OS X,2023-02-28,1
2023-02-28T13:55:56.011Z,2266,12,gazelle,gazelle,target,lower-right,i71hFFU2,validation - short,FALSE,Mac OS X,2023-02-28,1
2023-02-28T13:55:59.529Z,2334,13,chanterelle,chanterelle,target,upper-left,i71hFFU2,validation - short,FALSE,Mac OS X,2023-02-28,1
2023-02-28T13:56:03.578Z,2770,14,ruin,ruin,target,lower-right,i71hFFU2,validation - short,FALSE,Mac OS X,2023-02-28,1
2023-02-28T13:56:06.128Z,1466,15,labyrinth,labyrinth,target,lower-left,i71hFFU2,validation - short,FALSE,Mac OS X,2023-02-28,1
2023-02-28T13:56:08.746Z,1612,16,orchid,orchid,target,lower-left,i71hFFU2,validation - short,FALSE,Mac OS X,2023-02-28,1
2023-02-28T13:56:11.347Z,1507,17,zucchini,zucchini,target,upper-right,i71hFFU2,validation - short,FALSE,Mac OS X,2023-02-28,1
2023-02-28T13:56:13.862Z,1029,18,kayak,kayak,target,upper-left,i71hFFU2,validation - short,FALSE,Mac OS X,2023-02-28,1
2023-02-28T13:56:16.195Z,943,19,lobster,lobster,target,upper-right,i71hFFU2,validation - short,FALSE,Mac OS X,2023-02-28,1
2023-02-28T13:56:18.679Z,1129,20,carnation,violets,dist1,lower-right,i71hFFU2,validation - short,FALSE,Mac OS X,2023-02-28,0
2023-02-28T13:56:21.267Z,1462,21,flounder,flounder,target,lower-right,i71hFFU2,validation - short,FALSE,Mac OS X,2023-02-28,1
2023-02-28T13:56:23.462Z,1158,22,cello,cello,target,lower-left,i71hFFU2,validation - short,FALSE,Mac OS X,2023-02-28,1
2023-02-28T13:51:51.398Z,2617,1,eye,eye,target,upper-left,i71hFFUE,validation - short,FALSE,Mac OS X,2023-02-28,1
2023-02-28T13:51:54.647Z,2232,2,carrot,carrot,target,lower-right,i71hFFUE,validation - short,FALSE,Mac OS X,2023-02-28,1
2023-02-28T13:51:57.931Z,2383,3,ant,ant,target,upper-right,i71hFFUE,validation - short,FALSE,Mac OS X,2023-02-28,1
2023-02-28T13:52:09.031Z,10133,4,elk,elk,target,upper-left,i71hFFUE,validation - short,FALSE,Mac OS X,2023-02-28,1
2023-02-28T13:52:11.131Z,1179,5,choir,choir,target,upper-right,i71hFFUE,validation - short,FALSE,Mac OS X,2023-02-28,1
2023-02-28T13:52:41.583Z,28930,6,ventilator,ventilator,target,lower-left,i71hFFUE,validation - short,FALSE,Mac OS X,2023-02-28,1
2023-02-28T13:52:43.666Z,1115,7,arugula,arugula,target,lower-right,i71hFFUE,validation - short,FALSE,Mac OS X,2023-02-28,1
2023-02-28T13:52:46.083Z,1095,8,giraffe,giraffe,target,upper-left,i71hFFUE,validation - short,FALSE,Mac OS X,2023-02-28,1
2023-02-28T13:52:48.450Z,1198,9,palmtree,palmtree,target,lower-left,i71hFFUE,validation - short,FALSE,Mac OS X,2023-02-28,1
2023-02-28T13:52:50.968Z,1481,10,pineapple,pineapple,target,lower-right,i71hFFUE,validation - short,FALSE,Mac OS X,2023-02-28,1
2023-02-28T13:52:54.551Z,2684,11,ocean,ocean,target,upper-left,i71hFFUE,validation - short,FALSE,Mac OS X,2023-02-28,1
2023-02-28T13:52:58.201Z,2698,12,gazelle,gazelle,target,lower-right,i71hFFUE,validation - short,FALSE,Mac OS X,2023-02-28,1
