timestamp,responseTime,trial,targetWord,chosenWord,chosenCategory,chosenPosition,subjID,order,touchscreen,os,test_day,correct
2023-03-01T19:51:22.771Z,5722,1,eye,eye,target,upper-left,1c8ao8Zt,validation - short,FALSE,Mac OS X,2023-03-01,1
2023-03-01T19:51:29.470Z,4238,2,carrot,carrot,target,lower-right,1c8ao8Zt,validation - short,FALSE,Mac OS X,2023-03-01,1
2023-03-01T19:51:37.337Z,6609,3,ant,ant,target,upper-right,1c8ao8Zt,validation - short,FALSE,Mac OS X,2023-03-01,1
2023-03-01T19:51:43.253Z,4067,4,elk,elk,target,upper-left,1c8ao8Zt,validation - short,FALSE,Mac OS X,2023-03-01,1
2023-03-01T19:51:48.153Z,3326,5,choir,choir,target,upper-right,1c8ao8Zt,validation - short,FALSE,Mac OS X,2023-03-01,1
2023-03-01T19:51:52.803Z,2926,6,ventilator,ventilator,target,lower-left,1c8ao8Zt,validation - short,FALSE,Mac OS X,2023-03-01,1
2023-03-01T19:51:57.452Z,3258,7,arugula,dracula,dist2,upper-left,1c8ao8Zt,validation - short,FALSE,Mac OS X,2023-03-01,0
2023-03-01T19:52:01.736Z,2858,8,giraffe,giraffe,target,upper-left,1c8ao8Zt,validation - short,FALSE,Mac OS X,2023-03-01,1
2023-03-01T19:52:05.836Z,2825,9,palmtree,palmtree,target,lower-left,1c8ao8Zt,validation - short,FALSE,Mac OS X,2023-03-01,1
2023-03-01T19:52:09.769Z,2525,10,pineapple,pineapple,target,lower-right,1c8ao8Zt,validation - short,FALSE,Mac OS X,2023-03-01,1
2023-03-01T19:52:15.019Z,3891,11,ocean,ocean,target,upper-left,1c8ao8Zt,validation - short,FALSE,Mac OS X,2023-03-01,1
2023-03-01T19:52:20.036Z,3652,12,gazelle,gazelle,target,lower-right,1c8ao8Zt,validation - short,FALSE,Mac OS X,2023-03-01,1
2023-03-01T19:52:26.303Z,4811,13,chanterelle,chanterelle,target,upper-left,1c8ao8Zt,validation - short,FALSE,Mac OS X,2023-03-01,1
2023-03-01T19:52:31.886Z,4357,14,ruin,ruin,target,lower-right,1c8ao8Zt,validation - short,FALSE,Mac OS X,2023-03-01,1
2023-03-01T19:52:35.587Z,2460,15,labyrinth,labyrinth,target,lower-left,1c8ao8Zt,validation - short,FALSE,Mac OS X,2023-03-01,1
2023-03-01T19:52:40.120Z,3294,16,orchid,orchid,target,lower-left,1c8ao8Zt,validation - short,FALSE,Mac OS X,2023-03-01,1
2023-03-01T19:52:44.202Z,2875,17,zucchini,zucchini,target,upper-right,1c8ao8Zt,validation - short,FALSE,Mac OS X,2023-03-01,1
2023-03-01T19:52:48.104Z,2702,18,kayak,kayak,target,upper-left,1c8ao8Zt,validation - short,FALSE,Mac OS X,2023-03-01,1
2023-03-01T19:52:52.169Z,2555,19,lobster,lobster,target,upper-right,1c8ao8Zt,validation - short,FALSE,Mac OS X,2023-03-01,1
2023-03-01T19:52:59.252Z,5768,20,carnation,violets,dist1,lower-right,1c8ao8Zt,validation - short,FALSE,Mac OS X,2023-03-01,0
2023-03-01T19:53:03.203Z,2643,21,flounder,flounder,target,lower-right,1c8ao8Zt,validation - short,FALSE,Mac OS X,2023-03-01,1
2023-03-01T19:53:17.102Z,12759,22,cello,marshmallow,dist2,upper-right,1c8ao8Zt,validation - short,FALSE,Mac OS X,2023-03-01,0
2023-03-02T12:03:48.338Z,5280,1,eye,eye,target,upper-left,1fabzt9G,validation - short,FALSE,Windows,2023-03-02,1
2023-03-02T12:03:56.113Z,5014,2,carrot,carrot,target,lower-right,1fabzt9G,validation - short,FALSE,Windows,2023-03-02,1
2023-03-02T12:04:01.497Z,3927,3,ant,ant,target,upper-right,1fabzt9G,validation - short,FALSE,Windows,2023-03-02,1
2023-03-02T12:04:13.089Z,10240,4,elk,elk,target,upper-left,1fabzt9G,validation - short,FALSE,Windows,2023-03-02,1
2023-03-02T12:04:32.209Z,17751,5,choir,choir,target,upper-right,1fabzt9G,validation - short,FALSE,Windows,2023-03-02,1
2023-03-02T12:04:43.233Z,6601,6,ventilator,ventilator,target,lower-left,1fabzt9G,validation - short,FALSE,Windows,2023-03-02,1
2023-03-02T12:04:49.849Z,5288,7,arugula,dracula,dist2,upper-left,1fabzt9G,validation - short,FALSE,Windows,2023-03-02,0
2023-03-02T12:04:57.698Z,6480,8,giraffe,giraffe,target,upper-left,1fabzt9G,validation - short,FALSE,Windows,2023-03-02,1
2023-03-02T12:05:02.113Z,3214,9,palmtree,palmtree,target,lower-left,1fabzt9G,validation - short,FALSE,Windows,2023-03-02,1
2023-03-02T12:05:06.098Z,2872,10,pineapple,pineapple,target,lower-right,1fabzt9G,validation - short,FALSE,Windows,2023-03-02,1
2023-03-02T12:05:13.097Z,5934,11,ocean,river,dist1,lower-left,1fabzt9G,validation - short,FALSE,Windows,2023-03-02,0
2023-03-02T12:05:20.673Z,6248,12,gazelle,astronaut,dist3,lower-left,1fabzt9G,validation - short,FALSE,Windows,2023-03-02,0
2023-03-02T12:05:25.929Z,4182,13,chanterelle,butterfly,dist2,lower-left,1fabzt9G,validation - short,FALSE,Windows,2023-03-02,0
2023-03-02T12:05:45.305Z,18200,14,ruin,goalkeeper,dist3,upper-left,1fabzt9G,validation - short,FALSE,Windows,2023-03-02,0
2023-03-02T12:05:52.297Z,6032,15,labyrinth,rollercoaster,dist1,upper-left,1fabzt9G,validation - short,FALSE,Windows,2023-03-02,0
2023-03-02T12:05:59.177Z,5358,16,orchid,banner,dist3,lower-right,1fabzt9G,validation - short,FALSE,Windows,2023-03-02,0
2023-03-02T12:06:06.265Z,5909,17,zucchini,zucchini,target,upper-right,1fabzt9G,validation - short,FALSE,Windows,2023-03-02,1
2023-03-02T12:06:11.889Z,3969,18,kayak,boomerang,dist3,lower-right,1fabzt9G,validation - short,FALSE,Windows,2023-03-02,0
2023-03-02T12:06:17.210Z,4282,19,lobster,microscope,dist3,upper-left,1fabzt9G,validation - short,FALSE,Windows,2023-03-02,0
2023-03-02T12:06:21.889Z,3495,20,carnation,carnation,target,upper-right,1fabzt9G,validation - short,FALSE,Windows,2023-03-02,1
2023-03-02T12:06:35.145Z,11880,21,flounder,pyramid,dist3,upper-right,1fabzt9G,validation - short,FALSE,Windows,2023-03-02,0
2023-03-02T12:06:39.737Z,3313,22,cello,harp,dist1,lower-right,1fabzt9G,validation - short,FALSE,Windows,2023-03-02,0
2023-03-15T16:10:19.646Z,6220,1,eye,eye,target,upper-left,1i2eNanw,validation - short,TRUE,Mac OS X,2023-03-15,1
2023-03-15T16:10:25.364Z,3778,2,carrot,carrot,target,lower-right,1i2eNanw,validation - short,TRUE,Mac OS X,2023-03-15,1
2023-03-15T16:10:29.705Z,3073,3,ant,ant,target,upper-right,1i2eNanw,validation - short,TRUE,Mac OS X,2023-03-15,1
2023-03-15T16:10:34.305Z,3701,4,elk,elk,target,upper-left,1i2eNanw,validation - short,TRUE,Mac OS X,2023-03-15,1
2023-03-15T16:10:47.132Z,11858,5,choir,choir,target,upper-right,1i2eNanw,validation - short,TRUE,Mac OS X,2023-03-15,1
2023-03-15T16:10:50.624Z,2356,6,ventilator,ventilator,target,lower-left,1i2eNanw,validation - short,TRUE,Mac OS X,2023-03-15,1
2023-03-15T16:10:57.460Z,5883,7,arugula,arugula,target,lower-right,1i2eNanw,validation - short,TRUE,Mac OS X,2023-03-15,1
2023-03-15T16:11:00.883Z,1905,8,giraffe,giraffe,target,upper-left,1i2eNanw,validation - short,TRUE,Mac OS X,2023-03-15,1
2023-03-15T16:11:03.849Z,1982,9,palmtree,palmtree,target,lower-left,1i2eNanw,validation - short,TRUE,Mac OS X,2023-03-15,1
2023-03-15T16:11:07.023Z,2286,10,pineapple,pineapple,target,lower-right,1i2eNanw,validation - short,TRUE,Mac OS X,2023-03-15,1
2023-03-15T16:11:12.130Z,4194,11,ocean,ocean,target,upper-left,1i2eNanw,validation - short,TRUE,Mac OS X,2023-03-15,1
2023-03-15T16:11:20.761Z,7737,12,gazelle,gazelle,target,lower-right,1i2eNanw,validation - short,TRUE,Mac OS X,2023-03-15,1
2023-03-15T16:11:31.663Z,10098,13,chanterelle,chanterelle,target,upper-left,1i2eNanw,validation - short,TRUE,Mac OS X,2023-03-15,1
2023-03-15T16:11:45.504Z,9693,14,ruin,ruin,target,lower-right,1i2eNanw,validation - short,TRUE,Mac OS X,2023-03-15,1
2023-03-15T16:11:50.926Z,4328,15,labyrinth,labyrinth,target,lower-left,1i2eNanw,validation - short,TRUE,Mac OS X,2023-03-15,1
2023-03-15T16:12:23.084Z,31396,16,orchid,orchid,target,lower-left,1i2eNanw,validation - short,TRUE,Mac OS X,2023-03-15,1
2023-03-15T16:12:28.495Z,4592,17,zucchini,zucchini,target,upper-right,1i2eNanw,validation - short,TRUE,Mac OS X,2023-03-15,1
2023-03-15T16:12:35.069Z,5616,18,kayak,kayak,target,upper-left,1i2eNanw,validation - short,TRUE,Mac OS X,2023-03-15,1
2023-03-15T16:12:46.075Z,10137,19,lobster,lobster,target,upper-right,1i2eNanw,validation - short,TRUE,Mac OS X,2023-03-15,1
2023-03-15T16:13:06.833Z,19912,20,carnation,violets,dist1,lower-right,1i2eNanw,validation - short,TRUE,Mac OS X,2023-03-15,0
2023-03-15T16:13:11.528Z,3718,21,flounder,flounder,target,lower-right,1i2eNanw,validation - short,TRUE,Mac OS X,2023-03-15,1
2023-03-15T16:13:17.689Z,5295,22,cello,cello,target,lower-left,1i2eNanw,validation - short,TRUE,Mac OS X,2023-03-15,1
2023-03-01T18:42:07.640Z,35711,1,eye,eye,target,upper-left,1m11RBXv,validation - short,TRUE,Android,2023-03-01,1
2023-03-01T18:42:17.570Z,6158,2,carrot,carrot,target,lower-right,1m11RBXv,validation - short,TRUE,Android,2023-03-01,1
2023-03-01T18:42:26.454Z,4630,3,ant,ant,target,upper-right,1m11RBXv,validation - short,TRUE,Android,2023-03-01,1
2023-03-01T18:42:33.528Z,4370,4,elk,elk,target,upper-left,1m11RBXv,validation - short,TRUE,Android,2023-03-01,1
2023-03-01T18:42:41.565Z,5241,5,choir,pipe,dist2,upper-left,1m11RBXv,validation - short,TRUE,Android,2023-03-01,0
2023-03-01T18:42:48.783Z,3419,6,ventilator,ventilator,target,lower-left,1m11RBXv,validation - short,TRUE,Android,2023-03-01,1
2023-03-01T18:43:11.371Z,14146,7,arugula,arugula,target,lower-right,1m11RBXv,validation - short,TRUE,Android,2023-03-01,1
2023-03-01T18:43:24.901Z,5174,8,giraffe,giraffe,target,upper-left,1m11RBXv,validation - short,TRUE,Android,2023-03-01,1
2023-03-01T18:43:32.244Z,4344,9,palmtree,palmtree,target,lower-left,1m11RBXv,validation - short,TRUE,Android,2023-03-01,1
2023-03-01T18:43:40.675Z,5898,10,pineapple,pineapple,target,lower-right,1m11RBXv,validation - short,TRUE,Android,2023-03-01,1
2023-03-01T18:44:00.186Z,17631,11,ocean,ocean,target,upper-left,1m11RBXv,validation - short,TRUE,Android,2023-03-01,1
2023-03-01T18:44:20.779Z,15458,12,gazelle,gazelle,target,lower-right,1m11RBXv,validation - short,TRUE,Android,2023-03-01,1
2023-03-01T18:46:09.194Z,105467,13,chanterelle,chanterelle,target,upper-left,1m11RBXv,validation - short,TRUE,Android,2023-03-01,1
2023-03-01T18:46:53.921Z,36686,14,ruin,ruin,target,lower-right,1m11RBXv,validation - short,TRUE,Android,2023-03-01,1
2023-03-01T18:47:06.470Z,8672,15,labyrinth,labyrinth,target,lower-left,1m11RBXv,validation - short,TRUE,Android,2023-03-01,1
2023-03-01T18:48:33.020Z,84369,16,orchid,orchid,target,lower-left,1m11RBXv,validation - short,TRUE,Android,2023-03-01,1
2023-03-01T18:48:48.750Z,7991,17,zucchini,zucchini,target,upper-right,1m11RBXv,validation - short,TRUE,Android,2023-03-01,1
2023-03-01T18:49:02.900Z,7660,18,kayak,kayak,target,upper-left,1m11RBXv,validation - short,TRUE,Android,2023-03-01,1
2023-03-01T18:49:11.616Z,7360,19,lobster,lobster,target,upper-right,1m11RBXv,validation - short,TRUE,Android,2023-03-01,1
2023-03-01T18:49:19.270Z,6597,20,carnation,carnation,target,upper-right,1m11RBXv,validation - short,TRUE,Android,2023-03-01,1
2023-03-01T18:49:29.031Z,7952,21,flounder,flounder,target,lower-right,1m11RBXv,validation - short,TRUE,Android,2023-03-01,1
2023-03-01T18:49:45.525Z,14380,22,cello,cello,target,lower-left,1m11RBXv,validation - short,TRUE,Android,2023-03-01,1
2023-03-03T15:57:27.362Z,4842,1,eye,eye,target,upper-left,1R9NNwNm,validation - short,FALSE,Windows,2023-03-03,1
2023-03-03T15:57:34.262Z,3629,2,carrot,carrot,target,lower-right,1R9NNwNm,validation - short,FALSE,Windows,2023-03-03,1
2023-03-03T15:57:40.717Z,3651,3,ant,ant,target,upper-right,1R9NNwNm,validation - short,FALSE,Windows,2023-03-03,1
2023-03-03T15:57:46.467Z,3857,4,elk,elk,target,upper-left,1R9NNwNm,validation - short,FALSE,Windows,2023-03-03,1
2023-03-03T15:57:51.692Z,3859,5,choir,choir,target,upper-right,1R9NNwNm,validation - short,FALSE,Windows,2023-03-03,1
2023-03-03T15:57:57.124Z,3560,6,ventilator,ventilator,target,lower-left,1R9NNwNm,validation - short,FALSE,Windows,2023-03-03,1
2023-03-03T15:58:03.353Z,4881,7,arugula,dracula,dist2,upper-left,1R9NNwNm,validation - short,FALSE,Windows,2023-03-03,0
2023-03-03T15:58:07.621Z,2790,8,giraffe,giraffe,target,upper-left,1R9NNwNm,validation - short,FALSE,Windows,2023-03-03,1
2023-03-03T15:58:12.937Z,3632,9,palmtree,palmtree,target,lower-left,1R9NNwNm,validation - short,FALSE,Windows,2023-03-03,1
2023-03-03T15:58:17.520Z,3404,10,pineapple,pineapple,target,lower-right,1R9NNwNm,validation - short,FALSE,Windows,2023-03-03,1
2023-03-03T15:58:24.663Z,5344,11,ocean,ocean,target,upper-left,1R9NNwNm,validation - short,FALSE,Windows,2023-03-03,1
2023-03-03T15:58:33.264Z,7249,12,gazelle,gazelle,target,lower-right,1R9NNwNm,validation - short,FALSE,Windows,2023-03-03,1
2023-03-03T15:58:40.556Z,5314,13,chanterelle,chanterelle,target,upper-left,1R9NNwNm,validation - short,FALSE,Windows,2023-03-03,1
2023-03-03T15:58:48.778Z,5292,14,ruin,ruin,target,lower-right,1R9NNwNm,validation - short,FALSE,Windows,2023-03-03,1
2023-03-03T15:58:56.094Z,4448,15,labyrinth,labyrinth,target,lower-left,1R9NNwNm,validation - short,FALSE,Windows,2023-03-03,1
2023-03-03T15:59:04.557Z,6841,16,orchid,orchid,target,lower-left,1R9NNwNm,validation - short,FALSE,Windows,2023-03-03,1
2023-03-03T15:59:09.670Z,3716,17,zucchini,zucchini,target,upper-right,1R9NNwNm,validation - short,FALSE,Windows,2023-03-03,1
2023-03-03T15:59:14.837Z,3625,18,kayak,kayak,target,upper-left,1R9NNwNm,validation - short,FALSE,Windows,2023-03-03,1
2023-03-03T15:59:18.618Z,2670,19,lobster,lobster,target,upper-right,1R9NNwNm,validation - short,FALSE,Windows,2023-03-03,1
2023-03-03T15:59:24.034Z,4170,20,carnation,violets,dist1,lower-right,1R9NNwNm,validation - short,FALSE,Windows,2023-03-03,0
2023-03-03T15:59:31.012Z,5696,21,flounder,flounder,target,lower-right,1R9NNwNm,validation - short,FALSE,Windows,2023-03-03,1
2023-03-03T15:59:35.725Z,2972,22,cello,harp,dist1,lower-right,1R9NNwNm,validation - short,FALSE,Windows,2023-03-03,0
2023-03-18T08:42:52.297Z,9138,1,eye,eye,target,upper-left,1szVdUoz,validation - short,TRUE,Windows,2023-03-18,1
2023-03-18T08:43:00.086Z,4738,2,carrot,carrot,target,lower-right,1szVdUoz,validation - short,TRUE,Windows,2023-03-18,1
2023-03-18T08:43:07.843Z,5525,3,ant,ant,target,upper-right,1szVdUoz,validation - short,TRUE,Windows,2023-03-18,1
2023-03-18T08:43:17.165Z,7197,4,elk,elk,target,upper-left,1szVdUoz,validation - short,TRUE,Windows,2023-03-18,1
2023-03-18T08:43:30.144Z,10016,5,choir,orchestra,dist1,lower-right,1szVdUoz,validation - short,TRUE,Windows,2023-03-18,0
2023-03-18T08:43:39.128Z,5751,6,ventilator,ventilator,target,lower-left,1szVdUoz,validation - short,TRUE,Windows,2023-03-18,1
2023-03-18T08:43:46.489Z,4710,7,arugula,arugula,target,lower-right,1szVdUoz,validation - short,TRUE,Windows,2023-03-18,1
2023-03-18T08:43:53.169Z,4211,8,giraffe,giraffe,target,upper-left,1szVdUoz,validation - short,TRUE,Windows,2023-03-18,1
2023-03-18T08:44:00.880Z,5662,9,palmtree,cup,dist3,upper-left,1szVdUoz,validation - short,TRUE,Windows,2023-03-18,0
2023-03-18T08:44:08.774Z,3948,10,pineapple,pineapple,target,lower-right,1szVdUoz,validation - short,TRUE,Windows,2023-03-18,1
2023-03-18T08:44:19.196Z,6885,11,ocean,river,dist1,lower-left,1szVdUoz,validation - short,TRUE,Windows,2023-03-18,0
2023-03-18T08:44:36.845Z,14029,12,gazelle,dragonfly,dist2,upper-left,1szVdUoz,validation - short,TRUE,Windows,2023-03-18,0
2023-03-18T08:44:48.460Z,5953,13,chanterelle,chanterelle,target,upper-left,1szVdUoz,validation - short,TRUE,Windows,2023-03-18,1
2023-03-18T08:44:57.275Z,6373,14,ruin,ruin,target,lower-right,1szVdUoz,validation - short,TRUE,Windows,2023-03-18,1
2023-03-18T08:45:04.664Z,4947,15,labyrinth,whirlwind,dist2,lower-right,1szVdUoz,validation - short,TRUE,Windows,2023-03-18,0
2023-03-18T08:45:36.073Z,27287,16,orchid,banner,dist3,lower-right,1szVdUoz,validation - short,TRUE,Windows,2023-03-18,0
2023-03-18T08:45:46.221Z,4753,17,zucchini,zucchini,target,upper-right,1szVdUoz,validation - short,TRUE,Windows,2023-03-18,1
2023-03-18T08:45:54.960Z,5624,18,kayak,sailingboat,dist1,lower-left,1szVdUoz,validation - short,TRUE,Windows,2023-03-18,0
2023-03-18T08:46:21.296Z,23014,19,lobster,microscope,dist3,upper-left,1szVdUoz,validation - short,TRUE,Windows,2023-03-18,0
2023-03-18T08:46:33.241Z,6935,20,carnation,carnation,target,upper-right,1szVdUoz,validation - short,TRUE,Windows,2023-03-18,1
2023-03-18T08:46:40.138Z,4382,21,flounder,pyramid,dist3,upper-right,1szVdUoz,validation - short,TRUE,Windows,2023-03-18,0
2023-03-18T08:46:51.894Z,4525,22,cello,cello,target,lower-left,1szVdUoz,validation - short,TRUE,Windows,2023-03-18,1
2023-03-12T08:56:51.803Z,5156,1,eye,eye,target,upper-left,1tSzZs4u,validation - short,FALSE,Windows,2023-03-12,1
2023-03-12T08:57:03.423Z,3834,2,carrot,carrot,target,lower-right,1tSzZs4u,validation - short,FALSE,Windows,2023-03-12,1
2023-03-12T08:57:12.161Z,4457,3,ant,ant,target,upper-right,1tSzZs4u,validation - short,FALSE,Windows,2023-03-12,1
2023-03-12T08:57:21.625Z,4338,4,elk,elk,target,upper-left,1tSzZs4u,validation - short,FALSE,Windows,2023-03-12,1
2023-03-12T08:57:35.009Z,5238,5,choir,choir,target,upper-right,1tSzZs4u,validation - short,FALSE,Windows,2023-03-12,1
2023-03-12T08:57:41.966Z,2879,6,ventilator,ventilator,target,lower-left,1tSzZs4u,validation - short,FALSE,Windows,2023-03-12,1
2023-03-12T08:57:56.494Z,9538,7,arugula,arugula,target,lower-right,1tSzZs4u,validation - short,FALSE,Windows,2023-03-12,1
2023-03-12T08:58:02.546Z,2687,8,giraffe,giraffe,target,upper-left,1tSzZs4u,validation - short,FALSE,Windows,2023-03-12,1
2023-03-12T08:58:07.216Z,1961,9,palmtree,palmtree,target,lower-left,1tSzZs4u,validation - short,FALSE,Windows,2023-03-12,1
2023-03-12T08:58:14.023Z,2783,10,pineapple,pineapple,target,lower-right,1tSzZs4u,validation - short,FALSE,Windows,2023-03-12,1
2023-03-12T08:58:20.863Z,4219,11,ocean,ocean,target,upper-left,1tSzZs4u,validation - short,FALSE,Windows,2023-03-12,1
2023-03-12T08:58:32.016Z,7361,12,gazelle,dragonfly,dist2,upper-left,1tSzZs4u,validation - short,FALSE,Windows,2023-03-12,0
2023-03-12T08:58:40.172Z,4053,13,chanterelle,chanterelle,target,upper-left,1tSzZs4u,validation - short,FALSE,Windows,2023-03-12,1
2023-03-12T08:58:50.918Z,5745,14,ruin,ruin,target,lower-right,1tSzZs4u,validation - short,FALSE,Windows,2023-03-12,1
2023-03-12T08:58:57.445Z,3015,15,labyrinth,labyrinth,target,lower-left,1tSzZs4u,validation - short,FALSE,Windows,2023-03-12,1
2023-03-12T08:59:04.101Z,3700,16,orchid,orchid,target,lower-left,1tSzZs4u,validation - short,FALSE,Windows,2023-03-12,1
2023-03-12T08:59:11.745Z,3296,17,zucchini,zucchini,target,upper-right,1tSzZs4u,validation - short,FALSE,Windows,2023-03-12,1
2023-03-12T08:59:18.268Z,3118,18,kayak,kayak,target,upper-left,1tSzZs4u,validation - short,FALSE,Windows,2023-03-12,1
2023-03-12T08:59:27.268Z,3843,19,lobster,lobster,target,upper-right,1tSzZs4u,validation - short,FALSE,Windows,2023-03-12,1
2023-03-12T08:59:34.063Z,3866,20,carnation,carnation,target,upper-right,1tSzZs4u,validation - short,FALSE,Windows,2023-03-12,1
2023-03-12T08:59:42.082Z,4545,21,flounder,flounder,target,lower-right,1tSzZs4u,validation - short,FALSE,Windows,2023-03-12,1
2023-03-12T08:59:49.718Z,4649,22,cello,harp,dist1,lower-right,1tSzZs4u,validation - short,FALSE,Windows,2023-03-12,0
2023-03-04T12:21:17.179Z,4426,1,eye,eye,target,upper-left,1ucfbeiZ,validation - short,FALSE,Windows,2023-03-04,1
2023-03-04T12:21:26.471Z,6467,2,carrot,carrot,target,lower-right,1ucfbeiZ,validation - short,FALSE,Windows,2023-03-04,1
2023-03-04T12:21:32.175Z,3841,3,ant,ant,target,upper-right,1ucfbeiZ,validation - short,FALSE,Windows,2023-03-04,1
2023-03-04T12:21:50.375Z,12056,4,elk,elk,target,upper-left,1ucfbeiZ,validation - short,FALSE,Windows,2023-03-04,1
2023-03-04T12:22:05.501Z,8373,5,choir,choir,target,upper-right,1ucfbeiZ,validation - short,FALSE,Windows,2023-03-04,1
2023-03-04T12:22:21.169Z,5125,6,ventilator,ventilator,target,lower-left,1ucfbeiZ,validation - short,FALSE,Windows,2023-03-04,1
2023-03-04T12:22:36.076Z,9442,7,arugula,arugula,target,lower-right,1ucfbeiZ,validation - short,FALSE,Windows,2023-03-04,1
2023-03-04T12:22:49.608Z,8117,8,giraffe,giraffe,target,upper-left,1ucfbeiZ,validation - short,FALSE,Windows,2023-03-04,1
2023-03-04T12:23:01.606Z,5818,9,palmtree,palmtree,target,lower-left,1ucfbeiZ,validation - short,FALSE,Windows,2023-03-04,1
2023-03-04T12:23:12.416Z,5759,10,pineapple,pineapple,target,lower-right,1ucfbeiZ,validation - short,FALSE,Windows,2023-03-04,1
2023-03-04T12:23:26.261Z,7599,11,ocean,ocean,target,upper-left,1ucfbeiZ,validation - short,FALSE,Windows,2023-03-04,1
2023-03-04T12:24:06.266Z,32809,12,gazelle,gazelle,target,lower-right,1ucfbeiZ,validation - short,FALSE,Windows,2023-03-04,1
2023-03-04T12:24:23.827Z,13303,13,chanterelle,chanterelle,target,upper-left,1ucfbeiZ,validation - short,FALSE,Windows,2023-03-04,1
2023-03-04T12:24:35.969Z,7107,14,ruin,ruin,target,lower-right,1ucfbeiZ,validation - short,FALSE,Windows,2023-03-04,1
2023-03-04T12:24:51.717Z,7666,15,labyrinth,labyrinth,target,lower-left,1ucfbeiZ,validation - short,FALSE,Windows,2023-03-04,1
2023-03-04T12:25:13.039Z,16674,16,orchid,orchid,target,lower-left,1ucfbeiZ,validation - short,FALSE,Windows,2023-03-04,1
2023-03-04T12:25:24.288Z,7289,17,zucchini,zucchini,target,upper-right,1ucfbeiZ,validation - short,FALSE,Windows,2023-03-04,1
2023-03-04T12:25:41.381Z,7531,18,kayak,kayak,target,upper-left,1ucfbeiZ,validation - short,FALSE,Windows,2023-03-04,1
2023-03-04T12:25:52.174Z,6311,19,lobster,lobster,target,upper-right,1ucfbeiZ,validation - short,FALSE,Windows,2023-03-04,1
2023-03-04T12:26:10.922Z,14863,20,carnation,violets,dist1,lower-right,1ucfbeiZ,validation - short,FALSE,Windows,2023-03-04,0
2023-03-04T12:26:43.408Z,27255,21,flounder,flounder,target,lower-right,1ucfbeiZ,validation - short,FALSE,Windows,2023-03-04,1
2023-03-04T12:26:51.687Z,3733,22,cello,cello,target,lower-left,1ucfbeiZ,validation - short,FALSE,Windows,2023-03-04,1
2023-03-14T15:55:11.643Z,5748,1,eye,eye,target,upper-left,1xhycJfi,validation - short,TRUE,Windows,2023-03-14,1
2023-03-14T15:55:18.646Z,3506,2,carrot,carrot,target,lower-right,1xhycJfi,validation - short,TRUE,Windows,2023-03-14,1
2023-03-14T15:55:27.553Z,6016,3,ant,ant,target,upper-right,1xhycJfi,validation - short,TRUE,Windows,2023-03-14,1
2023-03-14T15:55:32.528Z,3260,4,elk,elk,target,upper-left,1xhycJfi,validation - short,TRUE,Windows,2023-03-14,1
2023-03-14T15:55:51.027Z,17286,5,choir,orchestra,dist1,lower-right,1xhycJfi,validation - short,TRUE,Windows,2023-03-14,0
2023-03-14T15:55:59.890Z,6198,6,ventilator,ventilator,target,lower-left,1xhycJfi,validation - short,TRUE,Windows,2023-03-14,1
2023-03-14T15:56:09.168Z,7760,7,arugula,dracula,dist2,upper-left,1xhycJfi,validation - short,TRUE,Windows,2023-03-14,0
2023-03-14T15:56:21.639Z,8467,8,giraffe,giraffe,target,upper-left,1xhycJfi,validation - short,TRUE,Windows,2023-03-14,1
2023-03-14T15:56:25.618Z,2412,9,palmtree,palmtree,target,lower-left,1xhycJfi,validation - short,TRUE,Windows,2023-03-14,1
2023-03-14T15:56:29.047Z,1681,10,pineapple,pineapple,target,lower-right,1xhycJfi,validation - short,TRUE,Windows,2023-03-14,1
2023-03-14T15:56:40.282Z,6221,11,ocean,ocean,target,upper-left,1xhycJfi,validation - short,TRUE,Windows,2023-03-14,1
2023-03-14T15:56:47.115Z,4856,12,gazelle,dragonfly,dist2,upper-left,1xhycJfi,validation - short,TRUE,Windows,2023-03-14,0
2023-03-14T15:56:56.978Z,7008,13,chanterelle,chanterelle,target,upper-left,1xhycJfi,validation - short,TRUE,Windows,2023-03-14,1
2023-03-14T15:57:03.751Z,5409,14,ruin,ruin,target,lower-right,1xhycJfi,validation - short,TRUE,Windows,2023-03-14,1
2023-03-14T15:57:09.644Z,4509,15,labyrinth,labyrinth,target,lower-left,1xhycJfi,validation - short,TRUE,Windows,2023-03-14,1
2023-03-14T15:57:14.825Z,3793,16,orchid,shrub,dist1,upper-left,1xhycJfi,validation - short,TRUE,Windows,2023-03-14,0
2023-03-14T15:57:19.560Z,3273,17,zucchini,zucchini,target,upper-right,1xhycJfi,validation - short,TRUE,Windows,2023-03-14,1
2023-03-14T15:57:27.957Z,7132,18,kayak,boomerang,dist3,lower-right,1xhycJfi,validation - short,TRUE,Windows,2023-03-14,0
2023-03-14T15:57:35.965Z,6569,19,lobster,microscope,dist3,upper-left,1xhycJfi,validation - short,TRUE,Windows,2023-03-14,0
2023-03-14T15:57:41.854Z,4320,20,carnation,compass,dist3,upper-left,1xhycJfi,validation - short,TRUE,Windows,2023-03-14,0
2023-03-14T15:57:47.288Z,3570,21,flounder,elderberry,dist2,upper-left,1xhycJfi,validation - short,TRUE,Windows,2023-03-14,0
2023-03-14T15:57:57.334Z,7729,22,cello,marshmallow,dist2,upper-right,1xhycJfi,validation - short,TRUE,Windows,2023-03-14,0
2023-03-04T08:49:21.778Z,3900,1,eye,eye,target,upper-left,1XKPmPrA,validation - short,FALSE,Windows,2023-03-04,1
2023-03-04T08:49:26.150Z,3047,2,carrot,carrot,target,lower-right,1XKPmPrA,validation - short,FALSE,Windows,2023-03-04,1
2023-03-04T08:49:30.034Z,3139,3,ant,ant,target,upper-right,1XKPmPrA,validation - short,FALSE,Windows,2023-03-04,1
2023-03-04T08:49:35.072Z,4226,4,elk,elk,target,upper-left,1XKPmPrA,validation - short,FALSE,Windows,2023-03-04,1
2023-03-04T08:49:40.616Z,4570,5,choir,choir,target,upper-right,1XKPmPrA,validation - short,FALSE,Windows,2023-03-04,1
2023-03-04T08:49:44.270Z,2707,6,ventilator,ventilator,target,lower-left,1XKPmPrA,validation - short,FALSE,Windows,2023-03-04,1
2023-03-04T08:49:51.975Z,6946,7,arugula,dracula,dist2,upper-left,1XKPmPrA,validation - short,FALSE,Windows,2023-03-04,0
2023-03-04T08:50:01.759Z,2117,8,giraffe,giraffe,target,upper-left,1XKPmPrA,validation - short,FALSE,Windows,2023-03-04,1
2023-03-04T08:50:04.833Z,2242,9,palmtree,palmtree,target,lower-left,1XKPmPrA,validation - short,FALSE,Windows,2023-03-04,1
2023-03-04T08:50:07.343Z,1755,10,pineapple,pineapple,target,lower-right,1XKPmPrA,validation - short,FALSE,Windows,2023-03-04,1
2023-03-04T08:50:13.987Z,5896,11,ocean,ocean,target,upper-left,1XKPmPrA,validation - short,FALSE,Windows,2023-03-04,1
2023-03-04T08:50:33.523Z,18609,12,gazelle,gazelle,target,lower-right,1XKPmPrA,validation - short,FALSE,Windows,2023-03-04,1
2023-03-04T08:50:40.413Z,4671,13,chanterelle,chanterelle,target,upper-left,1XKPmPrA,validation - short,FALSE,Windows,2023-03-04,1
2023-03-04T08:50:50.231Z,9055,14,ruin,ruin,target,lower-right,1XKPmPrA,validation - short,FALSE,Windows,2023-03-04,1
2023-03-04T08:50:53.071Z,2012,15,labyrinth,labyrinth,target,lower-left,1XKPmPrA,validation - short,FALSE,Windows,2023-03-04,1
2023-03-04T08:51:02.959Z,9146,16,orchid,orchid,target,lower-left,1XKPmPrA,validation - short,FALSE,Windows,2023-03-04,1
2023-03-04T08:51:06.551Z,2419,17,zucchini,zucchini,target,upper-right,1XKPmPrA,validation - short,FALSE,Windows,2023-03-04,1
2023-03-04T08:51:12.977Z,5611,18,kayak,kayak,target,upper-left,1XKPmPrA,validation - short,FALSE,Windows,2023-03-04,1
2023-03-04T08:51:20.059Z,6108,19,lobster,lobster,target,upper-right,1XKPmPrA,validation - short,FALSE,Windows,2023-03-04,1
2023-03-04T08:51:26.833Z,5933,20,carnation,carnation,target,upper-right,1XKPmPrA,validation - short,FALSE,Windows,2023-03-04,1
2023-03-04T08:51:34.095Z,6545,21,flounder,flounder,target,lower-right,1XKPmPrA,validation - short,FALSE,Windows,2023-03-04,1
2023-03-04T08:51:47.821Z,12921,22,cello,cello,target,lower-left,1XKPmPrA,validation - short,FALSE,Windows,2023-03-04,1
2023-03-07T16:42:56.749Z,4031,1,eye,eye,target,upper-left,24UJv3N2,validation - short,TRUE,Android,2023-03-07,1
2023-03-07T16:43:03.261Z,3443,2,carrot,carrot,target,lower-right,24UJv3N2,validation - short,TRUE,Android,2023-03-07,1
2023-03-07T16:43:15.282Z,10715,3,ant,ant,target,upper-right,24UJv3N2,validation - short,TRUE,Android,2023-03-07,1
2023-03-07T16:43:21.237Z,4106,4,elk,elk,target,upper-left,24UJv3N2,validation - short,TRUE,Android,2023-03-07,1
2023-03-07T16:43:33.619Z,10935,5,choir,choir,target,upper-right,24UJv3N2,validation - short,TRUE,Android,2023-03-07,1
2023-03-07T16:43:43.237Z,7870,6,ventilator,ventilator,target,lower-left,24UJv3N2,validation - short,TRUE,Android,2023-03-07,1
2023-03-07T16:43:50.327Z,3109,7,arugula,arugula,target,lower-right,24UJv3N2,validation - short,TRUE,Android,2023-03-07,1
2023-03-07T16:43:54.173Z,2023,8,giraffe,giraffe,target,upper-left,24UJv3N2,validation - short,TRUE,Android,2023-03-07,1
2023-03-07T16:44:02.901Z,7430,9,palmtree,cactus,dist1,upper-right,24UJv3N2,validation - short,TRUE,Android,2023-03-07,0
2023-03-07T16:44:07.020Z,2941,10,pineapple,pineapple,target,lower-right,24UJv3N2,validation - short,TRUE,Android,2023-03-07,1
2023-03-07T16:44:14.137Z,5871,11,ocean,ocean,target,upper-left,24UJv3N2,validation - short,TRUE,Android,2023-03-07,1
2023-03-07T16:44:24.190Z,8781,12,gazelle,deer,dist1,upper-right,24UJv3N2,validation - short,TRUE,Android,2023-03-07,0
2023-03-07T16:44:44.528Z,19159,13,chanterelle,chanterelle,target,upper-left,24UJv3N2,validation - short,TRUE,Android,2023-03-07,1
2023-03-07T16:45:06.253Z,20227,14,ruin,railtracks,dist2,lower-left,24UJv3N2,validation - short,TRUE,Android,2023-03-07,0
2023-03-07T16:45:26.010Z,10384,15,labyrinth,trafficjam,dist3,upper-right,24UJv3N2,validation - short,TRUE,Android,2023-03-07,0
2023-03-07T16:45:48.326Z,18221,16,orchid,shrub,dist1,upper-left,24UJv3N2,validation - short,TRUE,Android,2023-03-07,0
2023-03-07T16:45:57.386Z,4590,17,zucchini,zucchini,target,upper-right,24UJv3N2,validation - short,TRUE,Android,2023-03-07,1
2023-03-07T16:46:04.014Z,4335,18,kayak,backpack,dist2,upper-right,24UJv3N2,validation - short,TRUE,Android,2023-03-07,0
2023-03-07T16:46:11.979Z,2428,19,lobster,lobster,target,upper-right,24UJv3N2,validation - short,TRUE,Android,2023-03-07,1
2023-03-07T16:46:16.407Z,2541,20,carnation,carnation,target,upper-right,24UJv3N2,validation - short,TRUE,Android,2023-03-07,1
2023-03-07T16:46:21.725Z,3987,21,flounder,pyramid,dist3,upper-right,24UJv3N2,validation - short,TRUE,Android,2023-03-07,0
2023-03-07T16:46:26.386Z,2709,22,cello,marshmallow,dist2,upper-right,24UJv3N2,validation - short,TRUE,Android,2023-03-07,0
2023-03-10T16:56:35.450Z,7440,1,eye,eye,target,upper-left,2AcAMqCP,validation - short,TRUE,Windows,2023-03-10,1
2023-03-10T16:56:42.934Z,3301,2,carrot,carrot,target,lower-right,2AcAMqCP,validation - short,TRUE,Windows,2023-03-10,1
2023-03-10T16:56:47.743Z,2511,3,ant,ant,target,upper-right,2AcAMqCP,validation - short,TRUE,Windows,2023-03-10,1
2023-03-10T16:56:52.952Z,3651,4,elk,elk,target,upper-left,2AcAMqCP,validation - short,TRUE,Windows,2023-03-10,1
2023-03-10T16:57:09.749Z,15377,5,choir,choir,target,upper-right,2AcAMqCP,validation - short,TRUE,Windows,2023-03-10,1
2023-03-10T16:57:13.757Z,2498,6,ventilator,ventilator,target,lower-left,2AcAMqCP,validation - short,TRUE,Windows,2023-03-10,1
2023-03-10T16:57:28.463Z,11707,7,arugula,arugula,target,lower-right,2AcAMqCP,validation - short,TRUE,Windows,2023-03-10,1
2023-03-10T16:57:31.434Z,1641,8,giraffe,giraffe,target,upper-left,2AcAMqCP,validation - short,TRUE,Windows,2023-03-10,1
2023-03-10T16:57:35.215Z,2573,9,palmtree,palmtree,target,lower-left,2AcAMqCP,validation - short,TRUE,Windows,2023-03-10,1
2023-03-10T16:57:38.740Z,2379,10,pineapple,pineapple,target,lower-right,2AcAMqCP,validation - short,TRUE,Windows,2023-03-10,1
2023-03-10T16:57:45.431Z,4091,11,ocean,ocean,target,upper-left,2AcAMqCP,validation - short,TRUE,Windows,2023-03-10,1
2023-03-10T16:57:50.073Z,3090,12,gazelle,gazelle,target,lower-right,2AcAMqCP,validation - short,TRUE,Windows,2023-03-10,1
2023-03-10T16:57:54.887Z,3585,13,chanterelle,chanterelle,target,upper-left,2AcAMqCP,validation - short,TRUE,Windows,2023-03-10,1
2023-03-10T16:58:00.119Z,3956,14,ruin,ruin,target,lower-right,2AcAMqCP,validation - short,TRUE,Windows,2023-03-10,1
2023-03-10T16:58:05.984Z,4247,15,labyrinth,labyrinth,target,lower-left,2AcAMqCP,validation - short,TRUE,Windows,2023-03-10,1
2023-03-10T16:58:18.504Z,11334,16,orchid,orchid,target,lower-left,2AcAMqCP,validation - short,TRUE,Windows,2023-03-10,1
2023-03-10T16:58:26.020Z,3931,17,zucchini,zucchini,target,upper-right,2AcAMqCP,validation - short,TRUE,Windows,2023-03-10,1
2023-03-10T16:58:31.052Z,3769,18,kayak,kayak,target,upper-left,2AcAMqCP,validation - short,TRUE,Windows,2023-03-10,1
2023-03-10T16:58:40.960Z,8374,19,lobster,lobster,target,upper-right,2AcAMqCP,validation - short,TRUE,Windows,2023-03-10,1
2023-03-10T16:58:53.020Z,10298,20,carnation,carnation,target,upper-right,2AcAMqCP,validation - short,TRUE,Windows,2023-03-10,1
2023-03-10T16:59:01.625Z,6394,21,flounder,flounder,target,lower-right,2AcAMqCP,validation - short,TRUE,Windows,2023-03-10,1
2023-03-10T16:59:09.743Z,6936,22,cello,harp,dist1,lower-right,2AcAMqCP,validation - short,TRUE,Windows,2023-03-10,0
2023-03-17T14:55:03.761Z,4513,1,eye,eye,target,upper-left,2EV6dkft,validation - short,FALSE,Windows,2023-03-17,1
2023-03-17T14:55:18.331Z,3125,2,carrot,carrot,target,lower-right,2EV6dkft,validation - short,FALSE,Windows,2023-03-17,1
2023-03-17T14:55:29.140Z,7792,3,ant,ant,target,upper-right,2EV6dkft,validation - short,FALSE,Windows,2023-03-17,1
2023-03-17T14:55:37.179Z,4272,4,elk,elk,target,upper-left,2EV6dkft,validation - short,FALSE,Windows,2023-03-17,1
2023-03-17T14:55:50.915Z,10255,5,choir,orchestra,dist1,lower-right,2EV6dkft,validation - short,FALSE,Windows,2023-03-17,0
2023-03-17T14:55:57.035Z,3208,6,ventilator,ventilator,target,lower-left,2EV6dkft,validation - short,FALSE,Windows,2023-03-17,1
2023-03-17T14:56:17.265Z,15709,7,arugula,arugula,target,lower-right,2EV6dkft,validation - short,FALSE,Windows,2023-03-17,1
2023-03-17T14:56:26.313Z,6876,8,giraffe,giraffe,target,upper-left,2EV6dkft,validation - short,FALSE,Windows,2023-03-17,1
2023-03-17T14:56:31.521Z,2018,9,palmtree,palmtree,target,lower-left,2EV6dkft,validation - short,FALSE,Windows,2023-03-17,1
2023-03-17T14:56:38.713Z,3208,10,pineapple,pineapple,target,lower-right,2EV6dkft,validation - short,FALSE,Windows,2023-03-17,1
2023-03-17T14:56:51.217Z,8990,11,ocean,ocean,target,upper-left,2EV6dkft,validation - short,FALSE,Windows,2023-03-17,1
2023-03-17T14:57:00.274Z,5385,12,gazelle,gazelle,target,lower-right,2EV6dkft,validation - short,FALSE,Windows,2023-03-17,1
2023-03-17T14:57:12.243Z,9222,13,chanterelle,chanterelle,target,upper-left,2EV6dkft,validation - short,FALSE,Windows,2023-03-17,1
2023-03-17T14:57:25.379Z,8593,14,ruin,ruin,target,lower-right,2EV6dkft,validation - short,FALSE,Windows,2023-03-17,1
2023-03-17T14:57:45.786Z,17805,15,labyrinth,labyrinth,target,lower-left,2EV6dkft,validation - short,FALSE,Windows,2023-03-17,1
2023-03-17T14:58:01.146Z,12457,16,orchid,orchid,target,lower-left,2EV6dkft,validation - short,FALSE,Windows,2023-03-17,1
2023-03-17T14:58:10.351Z,7195,17,zucchini,zucchini,target,upper-right,2EV6dkft,validation - short,FALSE,Windows,2023-03-17,1
2023-03-17T14:58:21.479Z,8089,18,kayak,kayak,target,upper-left,2EV6dkft,validation - short,FALSE,Windows,2023-03-17,1
2023-03-17T14:58:45.343Z,21605,19,lobster,lobster,target,upper-right,2EV6dkft,validation - short,FALSE,Windows,2023-03-17,1
2023-03-17T14:59:01.063Z,7184,20,carnation,violets,dist1,lower-right,2EV6dkft,validation - short,FALSE,Windows,2023-03-17,0
2023-03-17T14:59:35.451Z,29574,21,flounder,flounder,target,lower-right,2EV6dkft,validation - short,FALSE,Windows,2023-03-17,1
2023-03-17T14:59:44.042Z,3743,22,cello,harp,dist1,lower-right,2EV6dkft,validation - short,FALSE,Windows,2023-03-17,0
2023-03-02T17:03:55.539Z,5340,1,eye,eye,target,upper-left,2EzEKVq4,validation - short,TRUE,Windows,2023-03-02,1
2023-03-02T17:04:03.444Z,3357,2,carrot,carrot,target,lower-right,2EzEKVq4,validation - short,TRUE,Windows,2023-03-02,1
2023-03-02T17:04:07.597Z,2419,3,ant,ant,target,upper-right,2EzEKVq4,validation - short,TRUE,Windows,2023-03-02,1
2023-03-02T17:04:13.220Z,3593,4,elk,elk,target,upper-left,2EzEKVq4,validation - short,TRUE,Windows,2023-03-02,1
2023-03-02T17:04:18.730Z,3695,5,choir,orchestra,dist1,lower-right,2EzEKVq4,validation - short,TRUE,Windows,2023-03-02,0
2023-03-02T17:04:23.589Z,2189,6,ventilator,ventilator,target,lower-left,2EzEKVq4,validation - short,TRUE,Windows,2023-03-02,1
2023-03-02T17:04:27.317Z,2217,7,arugula,dracula,dist2,upper-left,2EzEKVq4,validation - short,TRUE,Windows,2023-03-02,0
2023-03-02T17:04:58.804Z,1925,8,giraffe,giraffe,target,upper-left,2EzEKVq4,validation - short,TRUE,Windows,2023-03-02,1
2023-03-02T17:05:04.414Z,3929,9,palmtree,palmtree,target,lower-left,2EzEKVq4,validation - short,TRUE,Windows,2023-03-02,1
2023-03-02T17:05:09.273Z,2098,10,pineapple,pineapple,target,lower-right,2EzEKVq4,validation - short,TRUE,Windows,2023-03-02,1
2023-03-02T17:05:14.027Z,2998,11,ocean,ocean,target,upper-left,2EzEKVq4,validation - short,TRUE,Windows,2023-03-02,1
2023-03-02T17:05:23.946Z,8465,12,gazelle,dragonfly,dist2,upper-left,2EzEKVq4,validation - short,TRUE,Windows,2023-03-02,0
2023-03-02T17:05:43.747Z,17755,13,chanterelle,chanterelle,target,upper-left,2EzEKVq4,validation - short,TRUE,Windows,2023-03-02,1
2023-03-02T17:05:57.792Z,4511,14,ruin,ruin,target,lower-right,2EzEKVq4,validation - short,TRUE,Windows,2023-03-02,1
2023-03-02T17:06:05.396Z,2727,15,labyrinth,labyrinth,target,lower-left,2EzEKVq4,validation - short,TRUE,Windows,2023-03-02,1
2023-03-02T17:06:15.993Z,8679,16,orchid,orchid,target,lower-left,2EzEKVq4,validation - short,TRUE,Windows,2023-03-02,1
2023-03-02T17:06:31.287Z,3194,17,zucchini,zucchini,target,upper-right,2EzEKVq4,validation - short,TRUE,Windows,2023-03-02,1
2023-03-02T17:06:37.522Z,4788,18,kayak,kayak,target,upper-left,2EzEKVq4,validation - short,TRUE,Windows,2023-03-02,1
2023-03-02T17:06:42.526Z,2881,19,lobster,lobster,target,upper-right,2EzEKVq4,validation - short,TRUE,Windows,2023-03-02,1
2023-03-02T17:06:53.950Z,10067,20,carnation,carnation,target,upper-right,2EzEKVq4,validation - short,TRUE,Windows,2023-03-02,1
2023-03-02T17:07:01.488Z,4741,21,flounder,flounder,target,lower-right,2EzEKVq4,validation - short,TRUE,Windows,2023-03-02,1
2023-03-02T17:07:09.431Z,6063,22,cello,landingbridge,dist3,upper-left,2EzEKVq4,validation - short,TRUE,Windows,2023-03-02,0
2023-03-11T10:28:01.790Z,3200,1,eye,eye,target,upper-left,2KBSeT3M,validation - short,TRUE,Mac OS X,2023-03-11,1
2023-03-11T10:28:07.289Z,3660,2,carrot,carrot,target,lower-right,2KBSeT3M,validation - short,TRUE,Mac OS X,2023-03-11,1
2023-03-11T10:28:13.559Z,2843,3,ant,ant,target,upper-right,2KBSeT3M,validation - short,TRUE,Mac OS X,2023-03-11,1
2023-03-11T10:28:18.020Z,2863,4,elk,elk,target,upper-left,2KBSeT3M,validation - short,TRUE,Mac OS X,2023-03-11,1
2023-03-11T10:28:22.066Z,2806,5,choir,orchestra,dist1,lower-right,2KBSeT3M,validation - short,TRUE,Mac OS X,2023-03-11,0
2023-03-11T10:28:25.229Z,1874,6,ventilator,ventilator,target,lower-left,2KBSeT3M,validation - short,TRUE,Mac OS X,2023-03-11,1
2023-03-11T10:28:28.368Z,2063,7,arugula,dracula,dist2,upper-left,2KBSeT3M,validation - short,TRUE,Mac OS X,2023-03-11,0
2023-03-11T10:28:35.329Z,2010,8,giraffe,giraffe,target,upper-left,2KBSeT3M,validation - short,TRUE,Mac OS X,2023-03-11,1
2023-03-11T10:28:38.643Z,1730,9,palmtree,palmtree,target,lower-left,2KBSeT3M,validation - short,TRUE,Mac OS X,2023-03-11,1
2023-03-11T10:28:41.662Z,1745,10,pineapple,pineapple,target,lower-right,2KBSeT3M,validation - short,TRUE,Mac OS X,2023-03-11,1
2023-03-11T10:28:45.905Z,3199,11,ocean,ocean,target,upper-left,2KBSeT3M,validation - short,TRUE,Mac OS X,2023-03-11,1
2023-03-11T10:28:51.501Z,4581,12,gazelle,gazelle,target,lower-right,2KBSeT3M,validation - short,TRUE,Mac OS X,2023-03-11,1
2023-03-11T10:28:59.515Z,6925,13,chanterelle,chanterelle,target,upper-left,2KBSeT3M,validation - short,TRUE,Mac OS X,2023-03-11,1
2023-03-11T10:29:05.899Z,4239,14,ruin,ruin,target,lower-right,2KBSeT3M,validation - short,TRUE,Mac OS X,2023-03-11,1
2023-03-11T10:29:09.820Z,2648,15,labyrinth,labyrinth,target,lower-left,2KBSeT3M,validation - short,TRUE,Mac OS X,2023-03-11,1
2023-03-11T10:29:14.230Z,3410,16,orchid,orchid,target,lower-left,2KBSeT3M,validation - short,TRUE,Mac OS X,2023-03-11,1
2023-03-11T10:29:19.092Z,3919,17,zucchini,zucchini,target,upper-right,2KBSeT3M,validation - short,TRUE,Mac OS X,2023-03-11,1
2023-03-11T10:29:29.398Z,8657,18,kayak,boomerang,dist3,lower-right,2KBSeT3M,validation - short,TRUE,Mac OS X,2023-03-11,0
2023-03-11T10:29:35.361Z,4810,19,lobster,lobster,target,upper-right,2KBSeT3M,validation - short,TRUE,Mac OS X,2023-03-11,1
2023-03-11T10:29:39.481Z,2755,20,carnation,violets,dist1,lower-right,2KBSeT3M,validation - short,TRUE,Mac OS X,2023-03-11,0
2023-03-11T10:29:50.829Z,8539,21,flounder,flounder,target,lower-right,2KBSeT3M,validation - short,TRUE,Mac OS X,2023-03-11,1
2023-03-11T10:29:55.204Z,3381,22,cello,cello,target,lower-left,2KBSeT3M,validation - short,TRUE,Mac OS X,2023-03-11,1
2023-03-04T14:41:04.378Z,3186,1,eye,eye,target,upper-left,2koAfb5r,validation - short,TRUE,Windows,2023-03-04,1
2023-03-04T14:41:12.492Z,3184,2,carrot,carrot,target,lower-right,2koAfb5r,validation - short,TRUE,Windows,2023-03-04,1
2023-03-04T14:41:17.776Z,2515,3,ant,ant,target,upper-right,2koAfb5r,validation - short,TRUE,Windows,2023-03-04,1
2023-03-04T14:41:24.754Z,3421,4,elk,elk,target,upper-left,2koAfb5r,validation - short,TRUE,Windows,2023-03-04,1
2023-03-04T14:41:32.817Z,5484,5,choir,choir,target,upper-right,2koAfb5r,validation - short,TRUE,Windows,2023-03-04,1
2023-03-04T14:41:37.831Z,2799,6,ventilator,ventilator,target,lower-left,2koAfb5r,validation - short,TRUE,Windows,2023-03-04,1
2023-03-04T14:41:43.212Z,2949,7,arugula,arugula,target,lower-right,2koAfb5r,validation - short,TRUE,Windows,2023-03-04,1
2023-03-04T14:41:47.762Z,2667,8,giraffe,giraffe,target,upper-left,2koAfb5r,validation - short,TRUE,Windows,2023-03-04,1
2023-03-04T14:41:52.748Z,2820,9,palmtree,palmtree,target,lower-left,2koAfb5r,validation - short,TRUE,Windows,2023-03-04,1
2023-03-04T14:41:56.426Z,2085,10,pineapple,pineapple,target,lower-right,2koAfb5r,validation - short,TRUE,Windows,2023-03-04,1
2023-03-04T14:42:02.132Z,3911,11,ocean,ocean,target,upper-left,2koAfb5r,validation - short,TRUE,Windows,2023-03-04,1
2023-03-04T14:42:08.731Z,4622,12,gazelle,gazelle,target,lower-right,2koAfb5r,validation - short,TRUE,Windows,2023-03-04,1
2023-03-04T14:42:14.357Z,4204,13,chanterelle,chanterelle,target,upper-left,2koAfb5r,validation - short,TRUE,Windows,2023-03-04,1
2023-03-04T14:42:19.149Z,2934,14,ruin,ruin,target,lower-right,2koAfb5r,validation - short,TRUE,Windows,2023-03-04,1
2023-03-04T14:42:23.513Z,2613,15,labyrinth,labyrinth,target,lower-left,2koAfb5r,validation - short,TRUE,Windows,2023-03-04,1
2023-03-04T14:42:33.530Z,8372,16,orchid,orchid,target,lower-left,2koAfb5r,validation - short,TRUE,Windows,2023-03-04,1
2023-03-04T14:42:38.359Z,2987,17,zucchini,zucchini,target,upper-right,2koAfb5r,validation - short,TRUE,Windows,2023-03-04,1
2023-03-04T14:42:43.462Z,2321,18,kayak,kayak,target,upper-left,2koAfb5r,validation - short,TRUE,Windows,2023-03-04,1
2023-03-04T14:42:49.230Z,2505,19,lobster,lobster,target,upper-right,2koAfb5r,validation - short,TRUE,Windows,2023-03-04,1
2023-03-04T14:42:59.941Z,7467,20,carnation,violets,dist1,lower-right,2koAfb5r,validation - short,TRUE,Windows,2023-03-04,0
2023-03-04T14:43:04.288Z,2415,21,flounder,flounder,target,lower-right,2koAfb5r,validation - short,TRUE,Windows,2023-03-04,1
2023-03-04T14:43:13.572Z,7532,22,cello,cello,target,lower-left,2koAfb5r,validation - short,TRUE,Windows,2023-03-04,1
2023-03-12T14:57:38.128Z,5357,1,eye,eye,target,upper-left,2nVfEhsZ,validation - short,TRUE,Windows,2023-03-12,1
2023-03-12T14:57:44.869Z,3379,2,carrot,carrot,target,lower-right,2nVfEhsZ,validation - short,TRUE,Windows,2023-03-12,1
2023-03-12T14:57:52.751Z,2744,3,ant,ant,target,upper-right,2nVfEhsZ,validation - short,TRUE,Windows,2023-03-12,1
2023-03-12T14:57:57.222Z,2876,4,elk,elk,target,upper-left,2nVfEhsZ,validation - short,TRUE,Windows,2023-03-12,1
2023-03-12T14:58:03.600Z,4663,5,choir,choir,target,upper-right,2nVfEhsZ,validation - short,TRUE,Windows,2023-03-12,1
2023-03-12T14:58:07.383Z,2436,6,ventilator,ventilator,target,lower-left,2nVfEhsZ,validation - short,TRUE,Windows,2023-03-12,1
2023-03-12T14:58:30.916Z,22513,7,arugula,brusselsprouts,dist1,lower-left,2nVfEhsZ,validation - short,TRUE,Windows,2023-03-12,0
2023-03-12T14:58:35.298Z,2842,8,giraffe,giraffe,target,upper-left,2nVfEhsZ,validation - short,TRUE,Windows,2023-03-12,1
2023-03-12T14:58:39.370Z,2881,9,palmtree,palmtree,target,lower-left,2nVfEhsZ,validation - short,TRUE,Windows,2023-03-12,1
2023-03-12T14:58:43.188Z,2658,10,pineapple,pineapple,target,lower-right,2nVfEhsZ,validation - short,TRUE,Windows,2023-03-12,1
2023-03-12T14:58:49.504Z,5019,11,ocean,ocean,target,upper-left,2nVfEhsZ,validation - short,TRUE,Windows,2023-03-12,1
2023-03-12T14:59:00.766Z,9583,12,gazelle,gazelle,target,lower-right,2nVfEhsZ,validation - short,TRUE,Windows,2023-03-12,1
2023-03-12T14:59:09.005Z,6821,13,chanterelle,chanterelle,target,upper-left,2nVfEhsZ,validation - short,TRUE,Windows,2023-03-12,1
2023-03-12T14:59:17.345Z,7032,14,ruin,ruin,target,lower-right,2nVfEhsZ,validation - short,TRUE,Windows,2023-03-12,1
2023-03-12T14:59:24.354Z,5688,15,labyrinth,labyrinth,target,lower-left,2nVfEhsZ,validation - short,TRUE,Windows,2023-03-12,1
2023-03-12T14:59:28.839Z,3218,16,orchid,orchid,target,lower-left,2nVfEhsZ,validation - short,TRUE,Windows,2023-03-12,1
2023-03-12T14:59:33.240Z,3187,17,zucchini,zucchini,target,upper-right,2nVfEhsZ,validation - short,TRUE,Windows,2023-03-12,1
2023-03-12T14:59:41.917Z,7424,18,kayak,kayak,target,upper-left,2nVfEhsZ,validation - short,TRUE,Windows,2023-03-12,1
2023-03-12T14:59:47.552Z,4256,19,lobster,lobster,target,upper-right,2nVfEhsZ,validation - short,TRUE,Windows,2023-03-12,1
2023-03-12T14:59:59.095Z,10084,20,carnation,violets,dist1,lower-right,2nVfEhsZ,validation - short,TRUE,Windows,2023-03-12,0
2023-03-12T15:00:16.653Z,15672,21,flounder,flounder,target,lower-right,2nVfEhsZ,validation - short,TRUE,Windows,2023-03-12,1
2023-03-12T15:00:21.863Z,3795,22,cello,harp,dist1,lower-right,2nVfEhsZ,validation - short,TRUE,Windows,2023-03-12,0
2023-03-02T15:41:11.330Z,5593,1,eye,eye,target,upper-left,2NzP5Sr9,validation - short,FALSE,Windows,2023-03-02,1
2023-03-02T15:41:20.810Z,4342,2,carrot,carrot,target,lower-right,2NzP5Sr9,validation - short,FALSE,Windows,2023-03-02,1
2023-03-02T15:41:27.992Z,4497,3,ant,ant,target,upper-right,2NzP5Sr9,validation - short,FALSE,Windows,2023-03-02,1
2023-03-02T15:41:35.847Z,4752,4,elk,elk,target,upper-left,2NzP5Sr9,validation - short,FALSE,Windows,2023-03-02,1
2023-03-02T15:41:46.216Z,6083,5,choir,choir,target,upper-right,2NzP5Sr9,validation - short,FALSE,Windows,2023-03-02,1
2023-03-02T15:41:52.801Z,3254,6,ventilator,ventilator,target,lower-left,2NzP5Sr9,validation - short,FALSE,Windows,2023-03-02,1
2023-03-02T15:42:26.785Z,31200,7,arugula,arugula,target,lower-right,2NzP5Sr9,validation - short,FALSE,Windows,2023-03-02,1
2023-03-02T15:42:33.233Z,3749,8,giraffe,giraffe,target,upper-left,2NzP5Sr9,validation - short,FALSE,Windows,2023-03-02,1
2023-03-02T15:42:38.098Z,2102,9,palmtree,palmtree,target,lower-left,2NzP5Sr9,validation - short,FALSE,Windows,2023-03-02,1
2023-03-02T15:42:42.996Z,2973,10,pineapple,pineapple,target,lower-right,2NzP5Sr9,validation - short,FALSE,Windows,2023-03-02,1
2023-03-02T15:42:55.730Z,10428,11,ocean,ocean,target,upper-left,2NzP5Sr9,validation - short,FALSE,Windows,2023-03-02,1
2023-03-02T15:43:07.734Z,7891,12,gazelle,gazelle,target,lower-right,2NzP5Sr9,validation - short,FALSE,Windows,2023-03-02,1
2023-03-02T15:43:15.074Z,4280,13,chanterelle,chanterelle,target,upper-left,2NzP5Sr9,validation - short,FALSE,Windows,2023-03-02,1
2023-03-02T15:43:24.031Z,5541,14,ruin,ruin,target,lower-right,2NzP5Sr9,validation - short,FALSE,Windows,2023-03-02,1
2023-03-02T15:43:29.205Z,2644,15,labyrinth,labyrinth,target,lower-left,2NzP5Sr9,validation - short,FALSE,Windows,2023-03-02,1
2023-03-02T15:43:34.070Z,2576,16,orchid,orchid,target,lower-left,2NzP5Sr9,validation - short,FALSE,Windows,2023-03-02,1
2023-03-02T15:43:39.998Z,3815,17,zucchini,zucchini,target,upper-right,2NzP5Sr9,validation - short,FALSE,Windows,2023-03-02,1
2023-03-02T15:43:48.088Z,4910,18,kayak,kayak,target,upper-left,2NzP5Sr9,validation - short,FALSE,Windows,2023-03-02,1
2023-03-02T15:44:01.483Z,10353,19,lobster,lobster,target,upper-right,2NzP5Sr9,validation - short,FALSE,Windows,2023-03-02,1
2023-03-02T15:44:18.951Z,14990,20,carnation,violets,dist1,lower-right,2NzP5Sr9,validation - short,FALSE,Windows,2023-03-02,0
2023-03-02T15:44:30.006Z,8357,21,flounder,elderberry,dist2,upper-left,2NzP5Sr9,validation - short,FALSE,Windows,2023-03-02,0
2023-03-02T15:44:37.776Z,4063,22,cello,harp,dist1,lower-right,2NzP5Sr9,validation - short,FALSE,Windows,2023-03-02,0
2023-03-11T12:24:32.257Z,6451,1,eye,eye,target,upper-left,2oYfUJmF,validation - short,FALSE,Mac OS X,2023-03-11,1
2023-03-11T12:24:39.712Z,4269,2,carrot,carrot,target,lower-right,2oYfUJmF,validation - short,FALSE,Mac OS X,2023-03-11,1
2023-03-11T12:24:47.255Z,4117,3,ant,ant,target,upper-right,2oYfUJmF,validation - short,FALSE,Mac OS X,2023-03-11,1
2023-03-11T12:24:55.639Z,4928,4,elk,elk,target,upper-left,2oYfUJmF,validation - short,FALSE,Mac OS X,2023-03-11,1
2023-03-11T12:25:01.135Z,3240,5,choir,choir,target,upper-right,2oYfUJmF,validation - short,FALSE,Mac OS X,2023-03-11,1
2023-03-11T12:25:07.536Z,3105,6,ventilator,ventilator,target,lower-left,2oYfUJmF,validation - short,FALSE,Mac OS X,2023-03-11,1
2023-03-11T12:25:12.778Z,3880,7,arugula,dracula,dist2,upper-left,2oYfUJmF,validation - short,FALSE,Mac OS X,2023-03-11,0
2023-03-11T12:25:17.006Z,2775,8,giraffe,giraffe,target,upper-left,2oYfUJmF,validation - short,FALSE,Mac OS X,2023-03-11,1
2023-03-11T12:25:22.322Z,3338,9,palmtree,palmtree,target,lower-left,2oYfUJmF,validation - short,FALSE,Mac OS X,2023-03-11,1
2023-03-11T12:25:26.526Z,2125,10,pineapple,pineapple,target,lower-right,2oYfUJmF,validation - short,FALSE,Mac OS X,2023-03-11,1
2023-03-11T12:25:31.927Z,3899,11,ocean,ocean,target,upper-left,2oYfUJmF,validation - short,FALSE,Mac OS X,2023-03-11,1
2023-03-11T12:26:01.525Z,27942,12,gazelle,gazelle,target,lower-right,2oYfUJmF,validation - short,FALSE,Mac OS X,2023-03-11,1
2023-03-11T12:26:16.431Z,12835,13,chanterelle,chanterelle,target,upper-left,2oYfUJmF,validation - short,FALSE,Mac OS X,2023-03-11,1
2023-03-11T12:26:24.976Z,7103,14,ruin,ruin,target,lower-right,2oYfUJmF,validation - short,FALSE,Mac OS X,2023-03-11,1
2023-03-11T12:26:29.299Z,2928,15,labyrinth,labyrinth,target,lower-left,2oYfUJmF,validation - short,FALSE,Mac OS X,2023-03-11,1
2023-03-11T12:26:37.970Z,6120,16,orchid,orchid,target,lower-left,2oYfUJmF,validation - short,FALSE,Mac OS X,2023-03-11,1
2023-03-11T12:26:42.610Z,3237,17,zucchini,zucchini,target,upper-right,2oYfUJmF,validation - short,FALSE,Mac OS X,2023-03-11,1
2023-03-11T12:26:51.066Z,6904,18,kayak,sailingboat,dist1,lower-left,2oYfUJmF,validation - short,FALSE,Mac OS X,2023-03-11,0
2023-03-11T12:26:56.927Z,2792,19,lobster,lobster,target,upper-right,2oYfUJmF,validation - short,FALSE,Mac OS X,2023-03-11,1
2023-03-11T12:27:03.815Z,5532,20,carnation,violets,dist1,lower-right,2oYfUJmF,validation - short,FALSE,Mac OS X,2023-03-11,0
2023-03-11T12:27:11.802Z,6652,21,flounder,flounder,target,lower-right,2oYfUJmF,validation - short,FALSE,Mac OS X,2023-03-11,1
2023-03-11T12:27:24.109Z,10673,22,cello,harp,dist1,lower-right,2oYfUJmF,validation - short,FALSE,Mac OS X,2023-03-11,0
2023-03-11T06:27:10.019Z,6581,1,eye,eye,target,upper-left,2XWnYKYA,validation - short,TRUE,Chrome OS,2023-03-11,1
2023-03-11T06:27:20.915Z,8498,2,carrot,carrot,target,lower-right,2XWnYKYA,validation - short,TRUE,Chrome OS,2023-03-11,1
2023-03-11T06:27:25.465Z,2896,3,ant,ant,target,upper-right,2XWnYKYA,validation - short,TRUE,Chrome OS,2023-03-11,1
2023-03-11T06:27:30.747Z,3787,4,elk,elk,target,upper-left,2XWnYKYA,validation - short,TRUE,Chrome OS,2023-03-11,1
2023-03-11T06:27:35.983Z,3516,5,choir,orchestra,dist1,lower-right,2XWnYKYA,validation - short,TRUE,Chrome OS,2023-03-11,0
2023-03-11T06:27:42.400Z,4140,6,ventilator,ventilator,target,lower-left,2XWnYKYA,validation - short,TRUE,Chrome OS,2023-03-11,1
2023-03-11T06:27:55.143Z,11271,7,arugula,dracula,dist2,upper-left,2XWnYKYA,validation - short,TRUE,Chrome OS,2023-03-11,0
2023-03-11T06:27:58.217Z,1800,8,giraffe,giraffe,target,upper-left,2XWnYKYA,validation - short,TRUE,Chrome OS,2023-03-11,1
2023-03-11T06:28:02.055Z,2218,9,palmtree,palmtree,target,lower-left,2XWnYKYA,validation - short,TRUE,Chrome OS,2023-03-11,1
2023-03-11T06:28:13.431Z,9701,10,pineapple,pineapple,target,lower-right,2XWnYKYA,validation - short,TRUE,Chrome OS,2023-03-11,1
2023-03-11T06:28:18.988Z,4216,11,ocean,ocean,target,upper-left,2XWnYKYA,validation - short,TRUE,Chrome OS,2023-03-11,1
2023-03-11T06:28:24.276Z,4067,12,gazelle,gazelle,target,lower-right,2XWnYKYA,validation - short,TRUE,Chrome OS,2023-03-11,1
2023-03-11T06:28:33.033Z,6994,13,chanterelle,chanterelle,target,upper-left,2XWnYKYA,validation - short,TRUE,Chrome OS,2023-03-11,1
2023-03-11T06:28:47.625Z,13090,14,ruin,ruin,target,lower-right,2XWnYKYA,validation - short,TRUE,Chrome OS,2023-03-11,1
2023-03-11T06:28:53.184Z,3691,15,labyrinth,labyrinth,target,lower-left,2XWnYKYA,validation - short,TRUE,Chrome OS,2023-03-11,1
2023-03-11T06:29:05.717Z,10487,16,orchid,orchid,target,lower-left,2XWnYKYA,validation - short,TRUE,Chrome OS,2023-03-11,1
2023-03-11T06:29:10.664Z,3698,17,zucchini,zucchini,target,upper-right,2XWnYKYA,validation - short,TRUE,Chrome OS,2023-03-11,1
2023-03-11T06:29:15.773Z,3825,18,kayak,kayak,target,upper-left,2XWnYKYA,validation - short,TRUE,Chrome OS,2023-03-11,1
2023-03-11T06:29:22.421Z,5320,19,lobster,lobster,target,upper-right,2XWnYKYA,validation - short,TRUE,Chrome OS,2023-03-11,1
2023-03-11T06:29:28.301Z,3872,20,carnation,violets,dist1,lower-right,2XWnYKYA,validation - short,TRUE,Chrome OS,2023-03-11,0
2023-03-11T06:29:44.780Z,14593,21,flounder,pyramid,dist3,upper-right,2XWnYKYA,validation - short,TRUE,Chrome OS,2023-03-11,0
2023-03-11T06:29:53.531Z,7025,22,cello,harp,dist1,lower-right,2XWnYKYA,validation - short,TRUE,Chrome OS,2023-03-11,0
2023-03-02T18:33:24.481Z,3940,1,eye,eye,target,upper-left,36DwPbmB,validation - short,TRUE,iOS,2023-03-02,1
2023-03-02T18:33:33.220Z,4548,2,carrot,carrot,target,lower-right,36DwPbmB,validation - short,TRUE,iOS,2023-03-02,1
2023-03-02T18:33:40.346Z,3874,3,ant,ant,target,upper-right,36DwPbmB,validation - short,TRUE,iOS,2023-03-02,1
2023-03-02T18:33:46.152Z,4814,4,elk,elk,target,upper-left,36DwPbmB,validation - short,TRUE,iOS,2023-03-02,1
2023-03-02T18:34:13.510Z,26317,5,choir,orchestra,dist1,lower-right,36DwPbmB,validation - short,TRUE,iOS,2023-03-02,0
2023-03-02T18:34:17.676Z,3276,6,ventilator,ventilator,target,lower-left,36DwPbmB,validation - short,TRUE,iOS,2023-03-02,1
2023-03-02T18:34:26.602Z,7815,7,arugula,brusselsprouts,dist1,lower-left,36DwPbmB,validation - short,TRUE,iOS,2023-03-02,0
2023-03-02T18:34:30.875Z,3013,8,giraffe,giraffe,target,upper-left,36DwPbmB,validation - short,TRUE,iOS,2023-03-02,1
2023-03-02T18:34:34.647Z,2656,9,palmtree,palmtree,target,lower-left,36DwPbmB,validation - short,TRUE,iOS,2023-03-02,1
2023-03-02T18:34:38.393Z,2536,10,pineapple,pineapple,target,lower-right,36DwPbmB,validation - short,TRUE,iOS,2023-03-02,1
2023-03-02T18:34:45.452Z,5714,11,ocean,ocean,target,upper-left,36DwPbmB,validation - short,TRUE,iOS,2023-03-02,1
2023-03-02T18:34:51.008Z,4371,12,gazelle,gazelle,target,lower-right,36DwPbmB,validation - short,TRUE,iOS,2023-03-02,1
2023-03-02T18:35:02.779Z,10619,13,chanterelle,chanterelle,target,upper-left,36DwPbmB,validation - short,TRUE,iOS,2023-03-02,1
2023-03-02T18:35:09.106Z,5247,14,ruin,ruin,target,lower-right,36DwPbmB,validation - short,TRUE,iOS,2023-03-02,1
2023-03-02T18:35:13.043Z,2982,15,labyrinth,labyrinth,target,lower-left,36DwPbmB,validation - short,TRUE,iOS,2023-03-02,1
2023-03-02T18:35:19.146Z,5229,16,orchid,orchid,target,lower-left,36DwPbmB,validation - short,TRUE,iOS,2023-03-02,1
2023-03-02T18:35:22.973Z,3006,17,zucchini,zucchini,target,upper-right,36DwPbmB,validation - short,TRUE,iOS,2023-03-02,1
2023-03-02T18:35:32.118Z,7923,18,kayak,sailingboat,dist1,lower-left,36DwPbmB,validation - short,TRUE,iOS,2023-03-02,0
2023-03-02T18:35:38.889Z,5683,19,lobster,microscope,dist3,upper-left,36DwPbmB,validation - short,TRUE,iOS,2023-03-02,0
2023-03-02T18:35:44.257Z,4061,20,carnation,carnation,target,upper-right,36DwPbmB,validation - short,TRUE,iOS,2023-03-02,1
2023-03-02T18:35:51.845Z,6303,21,flounder,elderberry,dist2,upper-left,36DwPbmB,validation - short,TRUE,iOS,2023-03-02,0
2023-03-02T18:35:55.522Z,2420,22,cello,cello,target,lower-left,36DwPbmB,validation - short,TRUE,iOS,2023-03-02,1
2023-03-15T05:24:41.351Z,14204,1,eye,eye,target,upper-left,388CEkdZ,validation - short,TRUE,Mac OS X,2023-03-15,1
2023-03-15T05:24:50.530Z,3206,2,carrot,carrot,target,lower-right,388CEkdZ,validation - short,TRUE,Mac OS X,2023-03-15,1
2023-03-15T05:24:55.619Z,2779,3,ant,ant,target,upper-right,388CEkdZ,validation - short,TRUE,Mac OS X,2023-03-15,1
2023-03-15T05:25:00.577Z,3179,4,elk,elk,target,upper-left,388CEkdZ,validation - short,TRUE,Mac OS X,2023-03-15,1
2023-03-15T05:25:06.749Z,4354,5,choir,choir,target,upper-right,388CEkdZ,validation - short,TRUE,Mac OS X,2023-03-15,1
2023-03-15T05:25:10.654Z,2157,6,ventilator,ventilator,target,lower-left,388CEkdZ,validation - short,TRUE,Mac OS X,2023-03-15,1
2023-03-15T05:25:17.013Z,5000,7,arugula,dracula,dist2,upper-left,388CEkdZ,validation - short,TRUE,Mac OS X,2023-03-15,0
2023-03-15T05:25:20.339Z,1806,8,giraffe,giraffe,target,upper-left,388CEkdZ,validation - short,TRUE,Mac OS X,2023-03-15,1
2023-03-15T05:25:30.446Z,8430,9,palmtree,palmtree,target,lower-left,388CEkdZ,validation - short,TRUE,Mac OS X,2023-03-15,1
2023-03-15T05:25:35.076Z,1931,10,pineapple,pineapple,target,lower-right,388CEkdZ,validation - short,TRUE,Mac OS X,2023-03-15,1
2023-03-15T05:25:39.973Z,3602,11,ocean,ocean,target,upper-left,388CEkdZ,validation - short,TRUE,Mac OS X,2023-03-15,1
2023-03-15T05:25:47.375Z,5982,12,gazelle,gazelle,target,lower-right,388CEkdZ,validation - short,TRUE,Mac OS X,2023-03-15,1
2023-03-15T05:25:52.246Z,3239,13,chanterelle,chanterelle,target,upper-left,388CEkdZ,validation - short,TRUE,Mac OS X,2023-03-15,1
2023-03-15T05:25:58.708Z,5126,14,ruin,ruin,target,lower-right,388CEkdZ,validation - short,TRUE,Mac OS X,2023-03-15,1
2023-03-15T05:26:02.227Z,1852,15,labyrinth,labyrinth,target,lower-left,388CEkdZ,validation - short,TRUE,Mac OS X,2023-03-15,1
2023-03-15T05:26:09.184Z,5866,16,orchid,orchid,target,lower-left,388CEkdZ,validation - short,TRUE,Mac OS X,2023-03-15,1
2023-03-15T05:26:13.421Z,3231,17,zucchini,zucchini,target,upper-right,388CEkdZ,validation - short,TRUE,Mac OS X,2023-03-15,1
2023-03-15T05:26:35.854Z,21359,18,kayak,boomerang,dist3,lower-right,388CEkdZ,validation - short,TRUE,Mac OS X,2023-03-15,0
2023-03-15T05:26:48.361Z,10264,19,lobster,lobster,target,upper-right,388CEkdZ,validation - short,TRUE,Mac OS X,2023-03-15,1
2023-03-15T05:27:01.805Z,11823,20,carnation,carnation,target,upper-right,388CEkdZ,validation - short,TRUE,Mac OS X,2023-03-15,1
2023-03-15T05:27:50.177Z,46806,21,flounder,flounder,target,lower-right,388CEkdZ,validation - short,TRUE,Mac OS X,2023-03-15,1
2023-03-15T05:27:58.471Z,6906,22,cello,cello,target,lower-left,388CEkdZ,validation - short,TRUE,Mac OS X,2023-03-15,1
2023-03-11T18:57:13.268Z,2866,1,eye,eye,target,upper-left,3AUUwevx,validation - short,TRUE,Chrome OS,2023-03-11,1
2023-03-11T18:57:23.242Z,6429,2,carrot,carrot,target,lower-right,3AUUwevx,validation - short,TRUE,Chrome OS,2023-03-11,1
2023-03-11T18:57:29.828Z,3273,3,ant,ant,target,upper-right,3AUUwevx,validation - short,TRUE,Chrome OS,2023-03-11,1
2023-03-11T18:57:38.863Z,3626,4,elk,elk,target,upper-left,3AUUwevx,validation - short,TRUE,Chrome OS,2023-03-11,1
2023-03-11T18:58:00.151Z,17186,5,choir,choir,target,upper-right,3AUUwevx,validation - short,TRUE,Chrome OS,2023-03-11,1
2023-03-11T18:58:04.585Z,2030,6,ventilator,ventilator,target,lower-left,3AUUwevx,validation - short,TRUE,Chrome OS,2023-03-11,1
2023-03-11T18:58:35.362Z,28571,7,arugula,arugula,target,lower-right,3AUUwevx,validation - short,TRUE,Chrome OS,2023-03-11,1
2023-03-11T18:58:39.074Z,1873,8,giraffe,giraffe,target,upper-left,3AUUwevx,validation - short,TRUE,Chrome OS,2023-03-11,1
2023-03-11T18:58:42.443Z,1895,9,palmtree,palmtree,target,lower-left,3AUUwevx,validation - short,TRUE,Chrome OS,2023-03-11,1
2023-03-11T18:58:49.458Z,4213,10,pineapple,pineapple,target,lower-right,3AUUwevx,validation - short,TRUE,Chrome OS,2023-03-11,1
2023-03-11T18:58:54.005Z,3157,11,ocean,ocean,target,upper-left,3AUUwevx,validation - short,TRUE,Chrome OS,2023-03-11,1
2023-03-11T18:59:06.527Z,11350,12,gazelle,gazelle,target,lower-right,3AUUwevx,validation - short,TRUE,Chrome OS,2023-03-11,1
2023-03-11T18:59:15.500Z,7692,13,chanterelle,chanterelle,target,upper-left,3AUUwevx,validation - short,TRUE,Chrome OS,2023-03-11,1
2023-03-11T18:59:22.472Z,5892,14,ruin,ruin,target,lower-right,3AUUwevx,validation - short,TRUE,Chrome OS,2023-03-11,1
2023-03-11T18:59:25.407Z,1928,15,labyrinth,labyrinth,target,lower-left,3AUUwevx,validation - short,TRUE,Chrome OS,2023-03-11,1
2023-03-11T18:59:29.132Z,2533,16,orchid,orchid,target,lower-left,3AUUwevx,validation - short,TRUE,Chrome OS,2023-03-11,1
2023-03-11T18:59:36.936Z,6444,17,zucchini,zucchini,target,upper-right,3AUUwevx,validation - short,TRUE,Chrome OS,2023-03-11,1
2023-03-11T18:59:44.059Z,5747,18,kayak,kayak,target,upper-left,3AUUwevx,validation - short,TRUE,Chrome OS,2023-03-11,1
2023-03-11T19:00:26.546Z,41279,19,lobster,lobster,target,upper-right,3AUUwevx,validation - short,TRUE,Chrome OS,2023-03-11,1
2023-03-11T19:00:39.279Z,11118,20,carnation,carnation,target,upper-right,3AUUwevx,validation - short,TRUE,Chrome OS,2023-03-11,1
2023-03-11T19:00:46.927Z,6391,21,flounder,elderberry,dist2,upper-left,3AUUwevx,validation - short,TRUE,Chrome OS,2023-03-11,0
2023-03-11T19:00:52.984Z,4914,22,cello,harp,dist1,lower-right,3AUUwevx,validation - short,TRUE,Chrome OS,2023-03-11,0
2023-03-11T04:51:55.352Z,6560,1,eye,eye,target,upper-left,3BT9it1b,validation - short,FALSE,Windows,2023-03-11,1
2023-03-11T04:52:04.384Z,6508,2,carrot,carrot,target,lower-right,3BT9it1b,validation - short,FALSE,Windows,2023-03-11,1
2023-03-11T04:52:10.665Z,4578,3,ant,ant,target,upper-right,3BT9it1b,validation - short,FALSE,Windows,2023-03-11,1
2023-03-11T04:52:20.365Z,7798,4,elk,elk,target,upper-left,3BT9it1b,validation - short,FALSE,Windows,2023-03-11,1
2023-03-11T04:52:33.271Z,10690,5,choir,choir,target,upper-right,3BT9it1b,validation - short,FALSE,Windows,2023-03-11,1
2023-03-11T04:52:43.082Z,6776,6,ventilator,ventilator,target,lower-left,3BT9it1b,validation - short,FALSE,Windows,2023-03-11,1
2023-03-11T04:52:50.542Z,4855,7,arugula,dracula,dist2,upper-left,3BT9it1b,validation - short,FALSE,Windows,2023-03-11,0
2023-03-11T04:52:56.434Z,3603,8,giraffe,giraffe,target,upper-left,3BT9it1b,validation - short,FALSE,Windows,2023-03-11,1
2023-03-11T04:53:05.647Z,7398,9,palmtree,cup,dist3,upper-left,3BT9it1b,validation - short,FALSE,Windows,2023-03-11,0
2023-03-11T04:53:10.964Z,3267,10,pineapple,pineapple,target,lower-right,3BT9it1b,validation - short,FALSE,Windows,2023-03-11,1
2023-03-11T04:53:18.267Z,5419,11,ocean,ocean,target,upper-left,3BT9it1b,validation - short,FALSE,Windows,2023-03-11,1
2023-03-11T04:53:24.927Z,5093,12,gazelle,gazelle,target,lower-right,3BT9it1b,validation - short,FALSE,Windows,2023-03-11,1
2023-03-11T04:53:37.291Z,10909,13,chanterelle,chestnut,dist1,lower-right,3BT9it1b,validation - short,FALSE,Windows,2023-03-11,0
2023-03-11T04:53:56.566Z,17435,14,ruin,goalkeeper,dist3,upper-left,3BT9it1b,validation - short,FALSE,Windows,2023-03-11,0
2023-03-11T04:54:03.993Z,5547,15,labyrinth,trafficjam,dist3,upper-right,3BT9it1b,validation - short,FALSE,Windows,2023-03-11,0
2023-03-11T04:54:11.812Z,5783,16,orchid,banner,dist3,lower-right,3BT9it1b,validation - short,FALSE,Windows,2023-03-11,0
2023-03-11T04:54:17.575Z,4145,17,zucchini,zucchini,target,upper-right,3BT9it1b,validation - short,FALSE,Windows,2023-03-11,1
2023-03-11T04:54:24.644Z,5529,18,kayak,kayak,target,upper-left,3BT9it1b,validation - short,FALSE,Windows,2023-03-11,1
2023-03-11T04:54:35.562Z,8986,19,lobster,lobster,target,upper-right,3BT9it1b,validation - short,FALSE,Windows,2023-03-11,1
2023-03-11T04:54:42.591Z,4686,20,carnation,tents,dist2,lower-left,3BT9it1b,validation - short,FALSE,Windows,2023-03-11,0
2023-03-11T04:54:50.419Z,6404,21,flounder,pyramid,dist3,upper-right,3BT9it1b,validation - short,FALSE,Windows,2023-03-11,0
2023-03-11T04:54:57.905Z,5760,22,cello,marshmallow,dist2,upper-right,3BT9it1b,validation - short,FALSE,Windows,2023-03-11,0
2023-03-13T18:15:52.414Z,6796,1,eye,eye,target,upper-left,3FSmUbpW,validation - short,FALSE,Mac OS X,2023-03-13,1
2023-03-13T18:16:00.602Z,5454,2,carrot,carrot,target,lower-right,3FSmUbpW,validation - short,FALSE,Mac OS X,2023-03-13,1
2023-03-13T18:16:05.602Z,3636,3,ant,ant,target,upper-right,3FSmUbpW,validation - short,FALSE,Mac OS X,2023-03-13,1
2023-03-13T18:16:11.203Z,3968,4,elk,elk,target,upper-left,3FSmUbpW,validation - short,FALSE,Mac OS X,2023-03-13,1
2023-03-13T18:16:17.903Z,5189,5,choir,choir,target,upper-right,3FSmUbpW,validation - short,FALSE,Mac OS X,2023-03-13,1
2023-03-13T18:16:22.703Z,2929,6,ventilator,ventilator,target,lower-left,3FSmUbpW,validation - short,FALSE,Mac OS X,2023-03-13,1
2023-03-13T18:16:29.763Z,5457,7,arugula,brusselsprouts,dist1,lower-left,3FSmUbpW,validation - short,FALSE,Mac OS X,2023-03-13,0
2023-03-13T18:16:34.164Z,2823,8,giraffe,giraffe,target,upper-left,3FSmUbpW,validation - short,FALSE,Mac OS X,2023-03-13,1
2023-03-13T18:16:38.768Z,3027,9,palmtree,palmtree,target,lower-left,3FSmUbpW,validation - short,FALSE,Mac OS X,2023-03-13,1
2023-03-13T18:16:42.791Z,2651,10,pineapple,pineapple,target,lower-right,3FSmUbpW,validation - short,FALSE,Mac OS X,2023-03-13,1
2023-03-13T18:16:49.482Z,5263,11,ocean,ocean,target,upper-left,3FSmUbpW,validation - short,FALSE,Mac OS X,2023-03-13,1
2023-03-13T18:16:55.599Z,4528,12,gazelle,gazelle,target,lower-right,3FSmUbpW,validation - short,FALSE,Mac OS X,2023-03-13,1
2023-03-13T18:17:01.460Z,4467,13,chanterelle,chanterelle,target,upper-left,3FSmUbpW,validation - short,FALSE,Mac OS X,2023-03-13,1
2023-03-13T18:17:07.986Z,4665,14,ruin,ruin,target,lower-right,3FSmUbpW,validation - short,FALSE,Mac OS X,2023-03-13,1
2023-03-13T18:17:13.150Z,3221,15,labyrinth,labyrinth,target,lower-left,3FSmUbpW,validation - short,FALSE,Mac OS X,2023-03-13,1
2023-03-13T18:17:21.941Z,7400,16,orchid,orchid,target,lower-left,3FSmUbpW,validation - short,FALSE,Mac OS X,2023-03-13,1
2023-03-13T18:17:27.368Z,3940,17,zucchini,zucchini,target,upper-right,3FSmUbpW,validation - short,FALSE,Mac OS X,2023-03-13,1
2023-03-13T18:17:31.658Z,2713,18,kayak,kayak,target,upper-left,3FSmUbpW,validation - short,FALSE,Mac OS X,2023-03-13,1
2023-03-13T18:17:58.206Z,24943,19,lobster,crab,dist1,lower-right,3FSmUbpW,validation - short,FALSE,Mac OS X,2023-03-13,0
2023-03-13T18:18:06.654Z,6947,20,carnation,violets,dist1,lower-right,3FSmUbpW,validation - short,FALSE,Mac OS X,2023-03-13,0
2023-03-13T18:18:14.311Z,6184,21,flounder,flounder,target,lower-right,3FSmUbpW,validation - short,FALSE,Mac OS X,2023-03-13,1
2023-03-13T18:18:19.894Z,3861,22,cello,cello,target,lower-left,3FSmUbpW,validation - short,FALSE,Mac OS X,2023-03-13,1
2023-03-03T17:48:45.215Z,6475,1,eye,eye,target,upper-left,3J3CDH1e,validation - short,TRUE,Android,2023-03-03,1
2023-03-03T17:48:53.225Z,5859,2,carrot,carrot,target,lower-right,3J3CDH1e,validation - short,TRUE,Android,2023-03-03,1
2023-03-03T17:49:05.885Z,6211,3,ant,ant,target,upper-right,3J3CDH1e,validation - short,TRUE,Android,2023-03-03,1
2023-03-03T17:49:15.006Z,5840,4,elk,elk,target,upper-left,3J3CDH1e,validation - short,TRUE,Android,2023-03-03,1
2023-03-03T17:49:22.982Z,6268,5,choir,choir,target,upper-right,3J3CDH1e,validation - short,TRUE,Android,2023-03-03,1
2023-03-03T17:49:29.293Z,4780,6,ventilator,ventilator,target,lower-left,3J3CDH1e,validation - short,TRUE,Android,2023-03-03,1
2023-03-03T17:49:36.568Z,4066,7,arugula,brusselsprouts,dist1,lower-left,3J3CDH1e,validation - short,TRUE,Android,2023-03-03,0
2023-03-03T17:49:42.170Z,2569,8,giraffe,giraffe,target,upper-left,3J3CDH1e,validation - short,TRUE,Android,2023-03-03,1
2023-03-03T17:49:45.714Z,2566,9,palmtree,palmtree,target,lower-left,3J3CDH1e,validation - short,TRUE,Android,2023-03-03,1
2023-03-03T17:49:49.309Z,2459,10,pineapple,pineapple,target,lower-right,3J3CDH1e,validation - short,TRUE,Android,2023-03-03,1
2023-03-03T17:49:55.828Z,4002,11,ocean,ocean,target,upper-left,3J3CDH1e,validation - short,TRUE,Android,2023-03-03,1
2023-03-03T17:50:10.143Z,7989,12,gazelle,gazelle,target,lower-right,3J3CDH1e,validation - short,TRUE,Android,2023-03-03,1
2023-03-03T17:50:17.968Z,3237,13,chanterelle,chanterelle,target,upper-left,3J3CDH1e,validation - short,TRUE,Android,2023-03-03,1
2023-03-03T17:50:25.459Z,5209,14,ruin,ruin,target,lower-right,3J3CDH1e,validation - short,TRUE,Android,2023-03-03,1
2023-03-03T17:50:36.266Z,2516,15,labyrinth,labyrinth,target,lower-left,3J3CDH1e,validation - short,TRUE,Android,2023-03-03,1
2023-03-03T17:50:41.016Z,3057,16,orchid,orchid,target,lower-left,3J3CDH1e,validation - short,TRUE,Android,2023-03-03,1
2023-03-03T17:50:47.116Z,3954,17,zucchini,zucchini,target,upper-right,3J3CDH1e,validation - short,TRUE,Android,2023-03-03,1
2023-03-03T17:50:52.112Z,3573,18,kayak,kayak,target,upper-left,3J3CDH1e,validation - short,TRUE,Android,2023-03-03,1
2023-03-03T17:50:58.577Z,2447,19,lobster,lobster,target,upper-right,3J3CDH1e,validation - short,TRUE,Android,2023-03-03,1
2023-03-03T17:51:02.515Z,2709,20,carnation,violets,dist1,lower-right,3J3CDH1e,validation - short,TRUE,Android,2023-03-03,0
2023-03-03T17:51:07.386Z,2199,21,flounder,flounder,target,lower-right,3J3CDH1e,validation - short,TRUE,Android,2023-03-03,1
2023-03-03T17:51:17.900Z,8104,22,cello,harp,dist1,lower-right,3J3CDH1e,validation - short,TRUE,Android,2023-03-03,0
2023-03-11T15:10:49.767Z,19661,1,eye,eye,target,upper-left,3JgbQ7WT,validation - short,FALSE,Windows,2023-03-11,1
2023-03-11T15:11:07.626Z,5377,2,carrot,carrot,target,lower-right,3JgbQ7WT,validation - short,FALSE,Windows,2023-03-11,1
2023-03-11T15:11:30.812Z,5249,3,ant,ant,target,upper-right,3JgbQ7WT,validation - short,FALSE,Windows,2023-03-11,1
2023-03-11T15:11:48.931Z,11247,4,elk,elk,target,upper-left,3JgbQ7WT,validation - short,FALSE,Windows,2023-03-11,1
2023-03-11T15:12:05.190Z,11354,5,choir,orchestra,dist1,lower-right,3JgbQ7WT,validation - short,FALSE,Windows,2023-03-11,0
2023-03-11T15:12:13.044Z,3538,6,ventilator,ventilator,target,lower-left,3JgbQ7WT,validation - short,FALSE,Windows,2023-03-11,1
2023-03-11T15:12:23.955Z,6417,7,arugula,dracula,dist2,upper-left,3JgbQ7WT,validation - short,FALSE,Windows,2023-03-11,0
2023-03-11T15:12:34.095Z,3528,8,giraffe,giraffe,target,upper-left,3JgbQ7WT,validation - short,FALSE,Windows,2023-03-11,1
2023-03-11T15:12:53.075Z,4112,9,palmtree,palmtree,target,lower-left,3JgbQ7WT,validation - short,FALSE,Windows,2023-03-11,1
2023-03-11T15:13:00.707Z,3249,10,pineapple,pineapple,target,lower-right,3JgbQ7WT,validation - short,FALSE,Windows,2023-03-11,1
2023-03-11T15:13:11.176Z,7035,11,ocean,ocean,target,upper-left,3JgbQ7WT,validation - short,FALSE,Windows,2023-03-11,1
2023-03-11T15:13:21.340Z,6594,12,gazelle,dragonfly,dist2,upper-left,3JgbQ7WT,validation - short,FALSE,Windows,2023-03-11,0
2023-03-11T15:13:32.662Z,6328,13,chanterelle,chanterelle,target,upper-left,3JgbQ7WT,validation - short,FALSE,Windows,2023-03-11,1
2023-03-11T15:13:43.576Z,5786,14,ruin,ruin,target,lower-right,3JgbQ7WT,validation - short,FALSE,Windows,2023-03-11,1
2023-03-11T15:13:50.617Z,3610,15,labyrinth,labyrinth,target,lower-left,3JgbQ7WT,validation - short,FALSE,Windows,2023-03-11,1
2023-03-11T15:14:10.013Z,9880,16,orchid,orchid,target,lower-left,3JgbQ7WT,validation - short,FALSE,Windows,2023-03-11,1
2023-03-11T15:14:26.209Z,10784,17,zucchini,skateboard,dist3,lower-left,3JgbQ7WT,validation - short,FALSE,Windows,2023-03-11,0
2023-03-11T15:14:39.567Z,10317,18,kayak,kayak,target,upper-left,3JgbQ7WT,validation - short,FALSE,Windows,2023-03-11,1
2023-03-11T15:15:05.279Z,20534,19,lobster,lobster,target,upper-right,3JgbQ7WT,validation - short,FALSE,Windows,2023-03-11,1
2023-03-11T15:15:19.008Z,9734,20,carnation,carnation,target,upper-right,3JgbQ7WT,validation - short,FALSE,Windows,2023-03-11,1
2023-03-11T15:15:30.486Z,5571,21,flounder,flounder,target,lower-right,3JgbQ7WT,validation - short,FALSE,Windows,2023-03-11,1
2023-03-11T15:15:39.560Z,6643,22,cello,marshmallow,dist2,upper-right,3JgbQ7WT,validation - short,FALSE,Windows,2023-03-11,0
2023-03-05T13:28:51.181Z,3197,1,eye,eye,target,upper-left,3pMFWfyz,validation - short,TRUE,Windows,2023-03-05,1
2023-03-05T13:28:58.355Z,3262,2,carrot,carrot,target,lower-right,3pMFWfyz,validation - short,TRUE,Windows,2023-03-05,1
2023-03-05T13:29:02.420Z,2909,3,ant,ant,target,upper-right,3pMFWfyz,validation - short,TRUE,Windows,2023-03-05,1
2023-03-05T13:29:14.959Z,10985,4,elk,elk,target,upper-left,3pMFWfyz,validation - short,TRUE,Windows,2023-03-05,1
2023-03-05T13:29:22.559Z,6105,5,choir,pipe,dist2,upper-left,3pMFWfyz,validation - short,TRUE,Windows,2023-03-05,0
2023-03-05T13:29:26.521Z,2629,6,ventilator,ventilator,target,lower-left,3pMFWfyz,validation - short,TRUE,Windows,2023-03-05,1
2023-03-05T13:29:32.768Z,4997,7,arugula,arugula,target,lower-right,3pMFWfyz,validation - short,TRUE,Windows,2023-03-05,1
2023-03-05T13:29:36.337Z,2384,8,giraffe,giraffe,target,upper-left,3pMFWfyz,validation - short,TRUE,Windows,2023-03-05,1
2023-03-05T13:29:40.607Z,2941,9,palmtree,palmtree,target,lower-left,3pMFWfyz,validation - short,TRUE,Windows,2023-03-05,1
2023-03-05T13:29:44.174Z,2301,10,pineapple,pineapple,target,lower-right,3pMFWfyz,validation - short,TRUE,Windows,2023-03-05,1
2023-03-05T13:29:49.589Z,4048,11,ocean,ocean,target,upper-left,3pMFWfyz,validation - short,TRUE,Windows,2023-03-05,1
2023-03-05T13:29:56.790Z,5901,12,gazelle,gazelle,target,lower-right,3pMFWfyz,validation - short,TRUE,Windows,2023-03-05,1
2023-03-05T13:30:04.494Z,6455,13,chanterelle,butterfly,dist2,lower-left,3pMFWfyz,validation - short,TRUE,Windows,2023-03-05,0
2023-03-05T13:30:17.858Z,11993,14,ruin,ruin,target,lower-right,3pMFWfyz,validation - short,TRUE,Windows,2023-03-05,1
2023-03-05T13:30:23.474Z,4293,15,labyrinth,labyrinth,target,lower-left,3pMFWfyz,validation - short,TRUE,Windows,2023-03-05,1
2023-03-05T13:30:33.974Z,9204,16,orchid,banner,dist3,lower-right,3pMFWfyz,validation - short,TRUE,Windows,2023-03-05,0
2023-03-05T13:30:40.462Z,5399,17,zucchini,zucchini,target,upper-right,3pMFWfyz,validation - short,TRUE,Windows,2023-03-05,1
2023-03-05T13:30:47.816Z,5915,18,kayak,boomerang,dist3,lower-right,3pMFWfyz,validation - short,TRUE,Windows,2023-03-05,0
2023-03-05T13:30:57.485Z,8492,19,lobster,lobster,target,upper-right,3pMFWfyz,validation - short,TRUE,Windows,2023-03-05,1
2023-03-05T13:31:13.712Z,15154,20,carnation,compass,dist3,upper-left,3pMFWfyz,validation - short,TRUE,Windows,2023-03-05,0
2023-03-05T13:31:26.756Z,11873,21,flounder,orca,dist1,lower-left,3pMFWfyz,validation - short,TRUE,Windows,2023-03-05,0
2023-03-05T13:31:42.939Z,14615,22,cello,marshmallow,dist2,upper-right,3pMFWfyz,validation - short,TRUE,Windows,2023-03-05,0
2023-03-14T14:55:01.636Z,4132,1,eye,eye,target,upper-left,3QAUb76e,validation - short,TRUE,Mac OS X,2023-03-14,1
2023-03-14T14:55:12.440Z,7060,2,carrot,carrot,target,lower-right,3QAUb76e,validation - short,TRUE,Mac OS X,2023-03-14,1
2023-03-14T14:55:17.603Z,3883,3,ant,ant,target,upper-right,3QAUb76e,validation - short,TRUE,Mac OS X,2023-03-14,1
2023-03-14T14:55:22.539Z,3063,4,elk,elk,target,upper-left,3QAUb76e,validation - short,TRUE,Mac OS X,2023-03-14,1
2023-03-14T14:55:38.432Z,14890,5,choir,pipe,dist2,upper-left,3QAUb76e,validation - short,TRUE,Mac OS X,2023-03-14,0
2023-03-14T14:55:42.052Z,2344,6,ventilator,ventilator,target,lower-left,3QAUb76e,validation - short,TRUE,Mac OS X,2023-03-14,1
2023-03-14T14:56:07.204Z,22962,7,arugula,arugula,target,lower-right,3QAUb76e,validation - short,TRUE,Mac OS X,2023-03-14,1
2023-03-14T14:56:11.673Z,1926,8,giraffe,giraffe,target,upper-left,3QAUb76e,validation - short,TRUE,Mac OS X,2023-03-14,1
2023-03-14T14:56:20.968Z,8385,9,palmtree,palmtree,target,lower-left,3QAUb76e,validation - short,TRUE,Mac OS X,2023-03-14,1
2023-03-14T14:56:24.345Z,2293,10,pineapple,pineapple,target,lower-right,3QAUb76e,validation - short,TRUE,Mac OS X,2023-03-14,1
2023-03-14T14:56:29.521Z,4286,11,ocean,ocean,target,upper-left,3QAUb76e,validation - short,TRUE,Mac OS X,2023-03-14,1
2023-03-14T14:56:56.428Z,25867,12,gazelle,gazelle,target,lower-right,3QAUb76e,validation - short,TRUE,Mac OS X,2023-03-14,1
2023-03-14T14:57:15.680Z,18211,13,chanterelle,chanterelle,target,upper-left,3QAUb76e,validation - short,TRUE,Mac OS X,2023-03-14,1
2023-03-14T14:57:34.062Z,10069,14,ruin,ruin,target,lower-right,3QAUb76e,validation - short,TRUE,Mac OS X,2023-03-14,1
2023-03-14T14:57:45.022Z,8426,15,labyrinth,labyrinth,target,lower-left,3QAUb76e,validation - short,TRUE,Mac OS X,2023-03-14,1
2023-03-14T14:57:53.555Z,7629,16,orchid,orchid,target,lower-left,3QAUb76e,validation - short,TRUE,Mac OS X,2023-03-14,1
2023-03-14T14:57:57.755Z,3264,17,zucchini,zucchini,target,upper-right,3QAUb76e,validation - short,TRUE,Mac OS X,2023-03-14,1
2023-03-14T14:58:02.299Z,3717,18,kayak,kayak,target,upper-left,3QAUb76e,validation - short,TRUE,Mac OS X,2023-03-14,1
2023-03-14T14:58:05.887Z,2695,19,lobster,lobster,target,upper-right,3QAUb76e,validation - short,TRUE,Mac OS X,2023-03-14,1
2023-03-14T14:58:24.381Z,15423,20,carnation,carnation,target,upper-right,3QAUb76e,validation - short,TRUE,Mac OS X,2023-03-14,1
2023-03-14T14:58:35.166Z,5369,21,flounder,flounder,target,lower-right,3QAUb76e,validation - short,TRUE,Mac OS X,2023-03-14,1
2023-03-14T14:58:57.228Z,12632,22,cello,cello,target,lower-left,3QAUb76e,validation - short,TRUE,Mac OS X,2023-03-14,1
2023-03-11T11:54:37.561Z,5412,1,eye,eye,target,upper-left,3qeEa3WC,validation - short,FALSE,Mac OS X,2023-03-11,1
2023-03-11T11:54:45.344Z,4555,2,carrot,carrot,target,lower-right,3qeEa3WC,validation - short,FALSE,Mac OS X,2023-03-11,1
2023-03-11T11:54:51.324Z,3810,3,ant,ant,target,upper-right,3qeEa3WC,validation - short,FALSE,Mac OS X,2023-03-11,1
2023-03-11T11:54:58.212Z,4570,4,elk,elk,target,upper-left,3qeEa3WC,validation - short,FALSE,Mac OS X,2023-03-11,1
2023-03-11T11:55:06.275Z,5577,5,choir,choir,target,upper-right,3qeEa3WC,validation - short,FALSE,Mac OS X,2023-03-11,1
2023-03-11T11:55:13.119Z,4484,6,ventilator,ventilator,target,lower-left,3qeEa3WC,validation - short,FALSE,Mac OS X,2023-03-11,1
2023-03-11T11:55:37.434Z,20628,7,arugula,arugula,target,lower-right,3qeEa3WC,validation - short,FALSE,Mac OS X,2023-03-11,1
2023-03-11T11:55:44.671Z,5217,8,giraffe,giraffe,target,upper-left,3qeEa3WC,validation - short,FALSE,Mac OS X,2023-03-11,1
2023-03-11T11:55:55.427Z,6521,9,palmtree,palmtree,target,lower-left,3qeEa3WC,validation - short,FALSE,Mac OS X,2023-03-11,1
2023-03-11T11:56:00.257Z,2821,10,pineapple,pineapple,target,lower-right,3qeEa3WC,validation - short,FALSE,Mac OS X,2023-03-11,1
2023-03-11T11:56:07.708Z,5009,11,ocean,ocean,target,upper-left,3qeEa3WC,validation - short,FALSE,Mac OS X,2023-03-11,1
2023-03-11T11:56:17.476Z,6100,12,gazelle,gazelle,target,lower-right,3qeEa3WC,validation - short,FALSE,Mac OS X,2023-03-11,1
2023-03-11T11:56:26.563Z,6217,13,chanterelle,chanterelle,target,upper-left,3qeEa3WC,validation - short,FALSE,Mac OS X,2023-03-11,1
2023-03-11T11:56:55.377Z,21240,14,ruin,ruin,target,lower-right,3qeEa3WC,validation - short,FALSE,Mac OS X,2023-03-11,1
2023-03-11T11:57:02.393Z,3977,15,labyrinth,labyrinth,target,lower-left,3qeEa3WC,validation - short,FALSE,Mac OS X,2023-03-11,1
2023-03-11T11:57:26.419Z,21162,16,orchid,shrub,dist1,upper-left,3qeEa3WC,validation - short,FALSE,Mac OS X,2023-03-11,0
2023-03-11T11:57:34.471Z,5473,17,zucchini,zucchini,target,upper-right,3qeEa3WC,validation - short,FALSE,Mac OS X,2023-03-11,1
2023-03-11T11:57:41.657Z,5015,18,kayak,kayak,target,upper-left,3qeEa3WC,validation - short,FALSE,Mac OS X,2023-03-11,1
2023-03-11T11:57:53.285Z,8351,19,lobster,lobster,target,upper-right,3qeEa3WC,validation - short,FALSE,Mac OS X,2023-03-11,1
2023-03-11T11:58:09.029Z,12404,20,carnation,carnation,target,upper-right,3qeEa3WC,validation - short,FALSE,Mac OS X,2023-03-11,1
2023-03-11T11:58:20.280Z,8811,21,flounder,elderberry,dist2,upper-left,3qeEa3WC,validation - short,FALSE,Mac OS X,2023-03-11,0
2023-03-11T11:58:33.974Z,10895,22,cello,harp,dist1,lower-right,3qeEa3WC,validation - short,FALSE,Mac OS X,2023-03-11,0
2023-03-13T17:24:21.045Z,7614,1,eye,eye,target,upper-left,3VFWBGLC,validation - short,FALSE,Windows,2023-03-13,1
2023-03-13T17:24:28.147Z,4669,2,carrot,carrot,target,lower-right,3VFWBGLC,validation - short,FALSE,Windows,2023-03-13,1
2023-03-13T17:24:34.602Z,4163,3,ant,ant,target,upper-right,3VFWBGLC,validation - short,FALSE,Windows,2023-03-13,1
2023-03-13T17:24:45.158Z,8511,4,elk,elk,target,upper-left,3VFWBGLC,validation - short,FALSE,Windows,2023-03-13,1
2023-03-13T17:25:00.945Z,11962,5,choir,choir,target,upper-right,3VFWBGLC,validation - short,FALSE,Windows,2023-03-13,1
2023-03-13T17:25:10.068Z,6858,6,ventilator,ventilator,target,lower-left,3VFWBGLC,validation - short,FALSE,Windows,2023-03-13,1
2023-03-13T17:25:36.014Z,20910,7,arugula,arugula,target,lower-right,3VFWBGLC,validation - short,FALSE,Windows,2023-03-13,1
2023-03-13T17:25:45.038Z,5024,8,giraffe,giraffe,target,upper-left,3VFWBGLC,validation - short,FALSE,Windows,2023-03-13,1
2023-03-13T17:25:54.319Z,3216,9,palmtree,palmtree,target,lower-left,3VFWBGLC,validation - short,FALSE,Windows,2023-03-13,1
2023-03-13T17:26:04.200Z,5745,10,pineapple,pineapple,target,lower-right,3VFWBGLC,validation - short,FALSE,Windows,2023-03-13,1
2023-03-13T17:26:22.179Z,14570,11,ocean,ocean,target,upper-left,3VFWBGLC,validation - short,FALSE,Windows,2023-03-13,1
2023-03-13T17:27:14.470Z,47120,12,gazelle,gazelle,target,lower-right,3VFWBGLC,validation - short,FALSE,Windows,2023-03-13,1
2023-03-13T17:27:34.139Z,14806,13,chanterelle,butterfly,dist2,lower-left,3VFWBGLC,validation - short,FALSE,Windows,2023-03-13,0
2023-03-13T17:28:15.040Z,19387,14,ruin,ruin,target,lower-right,3VFWBGLC,validation - short,FALSE,Windows,2023-03-13,1
2023-03-13T17:28:24.908Z,5075,15,labyrinth,labyrinth,target,lower-left,3VFWBGLC,validation - short,FALSE,Windows,2023-03-13,1
2023-03-13T17:29:39.647Z,69181,16,orchid,orchid,target,lower-left,3VFWBGLC,validation - short,FALSE,Windows,2023-03-13,1
2023-03-13T17:29:49.826Z,5325,17,zucchini,zucchini,target,upper-right,3VFWBGLC,validation - short,FALSE,Windows,2023-03-13,1
2023-03-13T17:30:16.066Z,22140,18,kayak,boomerang,dist3,lower-right,3VFWBGLC,validation - short,FALSE,Windows,2023-03-13,0
2023-03-13T17:30:31.567Z,12681,19,lobster,microscope,dist3,upper-left,3VFWBGLC,validation - short,FALSE,Windows,2023-03-13,0
2023-03-13T17:31:00.093Z,19414,20,carnation,violets,dist1,lower-right,3VFWBGLC,validation - short,FALSE,Windows,2023-03-13,0
2023-03-13T17:31:23.421Z,19366,21,flounder,flounder,target,lower-right,3VFWBGLC,validation - short,FALSE,Windows,2023-03-13,1
2023-03-13T17:31:39.324Z,11594,22,cello,cello,target,lower-left,3VFWBGLC,validation - short,FALSE,Windows,2023-03-13,1
2023-03-10T15:11:17.019Z,7460,1,eye,eye,target,upper-left,3VMLkKXL,validation - short,TRUE,iOS,2023-03-10,1
2023-03-10T15:11:24.687Z,6207,2,carrot,carrot,target,lower-right,3VMLkKXL,validation - short,TRUE,iOS,2023-03-10,1
2023-03-10T15:11:29.201Z,2615,3,ant,ant,target,upper-right,3VMLkKXL,validation - short,TRUE,iOS,2023-03-10,1
2023-03-10T15:11:33.800Z,3637,4,elk,elk,target,upper-left,3VMLkKXL,validation - short,TRUE,iOS,2023-03-10,1
2023-03-10T15:11:46.140Z,11473,5,choir,choir,target,upper-right,3VMLkKXL,validation - short,TRUE,iOS,2023-03-10,1
2023-03-10T15:11:49.568Z,2035,6,ventilator,ventilator,target,lower-left,3VMLkKXL,validation - short,TRUE,iOS,2023-03-10,1
2023-03-10T15:12:50.740Z,60494,7,arugula,brusselsprouts,dist1,lower-left,3VMLkKXL,validation - short,TRUE,iOS,2023-03-10,0
2023-03-10T15:12:53.290Z,1968,8,giraffe,giraffe,target,upper-left,3VMLkKXL,validation - short,TRUE,iOS,2023-03-10,1
2023-03-10T15:12:55.826Z,1755,9,palmtree,palmtree,target,lower-left,3VMLkKXL,validation - short,TRUE,iOS,2023-03-10,1
2023-03-10T15:12:57.927Z,1573,10,pineapple,pineapple,target,lower-right,3VMLkKXL,validation - short,TRUE,iOS,2023-03-10,1
2023-03-10T15:13:02.678Z,4251,11,ocean,ocean,target,upper-left,3VMLkKXL,validation - short,TRUE,iOS,2023-03-10,1
2023-03-10T15:13:07.808Z,4233,12,gazelle,gazelle,target,lower-right,3VMLkKXL,validation - short,TRUE,iOS,2023-03-10,1
2023-03-10T15:13:12.047Z,3525,13,chanterelle,chanterelle,target,upper-left,3VMLkKXL,validation - short,TRUE,iOS,2023-03-10,1
2023-03-10T15:13:19.106Z,5308,14,ruin,ruin,target,lower-right,3VMLkKXL,validation - short,TRUE,iOS,2023-03-10,1
2023-03-10T15:13:22.111Z,1930,15,labyrinth,labyrinth,target,lower-left,3VMLkKXL,validation - short,TRUE,iOS,2023-03-10,1
2023-03-10T15:13:26.415Z,3314,16,orchid,orchid,target,lower-left,3VMLkKXL,validation - short,TRUE,iOS,2023-03-10,1
2023-03-10T15:13:30.300Z,2234,17,zucchini,zucchini,target,upper-right,3VMLkKXL,validation - short,TRUE,iOS,2023-03-10,1
2023-03-10T15:13:35.300Z,1742,18,kayak,kayak,target,upper-left,3VMLkKXL,validation - short,TRUE,iOS,2023-03-10,1
2023-03-10T15:13:38.549Z,1979,19,lobster,lobster,target,upper-right,3VMLkKXL,validation - short,TRUE,iOS,2023-03-10,1
2023-03-10T15:13:42.004Z,2348,20,carnation,violets,dist1,lower-right,3VMLkKXL,validation - short,TRUE,iOS,2023-03-10,0
2023-03-10T15:13:46.805Z,3712,21,flounder,elderberry,dist2,upper-left,3VMLkKXL,validation - short,TRUE,iOS,2023-03-10,0
2023-03-10T15:13:52.942Z,2098,22,cello,cello,target,lower-left,3VMLkKXL,validation - short,TRUE,iOS,2023-03-10,1
2023-03-04T11:17:31.485Z,11968,1,eye,eye,target,upper-left,3wpdrrwn,validation - short,TRUE,Android,2023-03-04,1
2023-03-04T11:17:38.129Z,5074,2,carrot,carrot,target,lower-right,3wpdrrwn,validation - short,TRUE,Android,2023-03-04,1
2023-03-04T11:17:46.793Z,5598,3,ant,ant,target,upper-right,3wpdrrwn,validation - short,TRUE,Android,2023-03-04,1
2023-03-04T11:17:53.741Z,5954,4,elk,elk,target,upper-left,3wpdrrwn,validation - short,TRUE,Android,2023-03-04,1
2023-03-04T11:18:02.185Z,7693,5,choir,orchestra,dist1,lower-right,3wpdrrwn,validation - short,TRUE,Android,2023-03-04,0
2023-03-04T11:18:13.113Z,4124,6,ventilator,ventilator,target,lower-left,3wpdrrwn,validation - short,TRUE,Android,2023-03-04,1
2023-03-04T11:18:31.442Z,17427,7,arugula,brusselsprouts,dist1,lower-left,3wpdrrwn,validation - short,TRUE,Android,2023-03-04,0
2023-03-04T11:18:36.748Z,4422,8,giraffe,giraffe,target,upper-left,3wpdrrwn,validation - short,TRUE,Android,2023-03-04,1
2023-03-04T11:18:42.754Z,5055,9,palmtree,palmtree,target,lower-left,3wpdrrwn,validation - short,TRUE,Android,2023-03-04,1
2023-03-04T11:18:51.870Z,7021,10,pineapple,pineapple,target,lower-right,3wpdrrwn,validation - short,TRUE,Android,2023-03-04,1
2023-03-04T11:18:58.402Z,5577,11,ocean,river,dist1,lower-left,3wpdrrwn,validation - short,TRUE,Android,2023-03-04,0
2023-03-04T11:19:03.093Z,3779,12,gazelle,astronaut,dist3,lower-left,3wpdrrwn,validation - short,TRUE,Android,2023-03-04,0
2023-03-04T11:19:12.382Z,8167,13,chanterelle,chestnut,dist1,lower-right,3wpdrrwn,validation - short,TRUE,Android,2023-03-04,0
2023-03-04T11:19:18.892Z,5748,14,ruin,goalkeeper,dist3,upper-left,3wpdrrwn,validation - short,TRUE,Android,2023-03-04,0
2023-03-04T11:19:25.583Z,4893,15,labyrinth,trafficjam,dist3,upper-right,3wpdrrwn,validation - short,TRUE,Android,2023-03-04,0
2023-03-04T11:19:35.025Z,7483,16,orchid,banner,dist3,lower-right,3wpdrrwn,validation - short,TRUE,Android,2023-03-04,0
2023-03-04T11:19:44.531Z,8531,17,zucchini,zucchini,target,upper-right,3wpdrrwn,validation - short,TRUE,Android,2023-03-04,1
2023-03-04T11:19:51.706Z,6283,18,kayak,backpack,dist2,upper-right,3wpdrrwn,validation - short,TRUE,Android,2023-03-04,0
2023-03-04T11:19:59.731Z,7052,19,lobster,lobster,target,upper-right,3wpdrrwn,validation - short,TRUE,Android,2023-03-04,1
2023-03-04T11:20:11.633Z,11216,20,carnation,tents,dist2,lower-left,3wpdrrwn,validation - short,TRUE,Android,2023-03-04,0
2023-03-04T11:20:18.653Z,5911,21,flounder,orca,dist1,lower-left,3wpdrrwn,validation - short,TRUE,Android,2023-03-04,0
2023-03-04T11:20:22.520Z,2968,22,cello,cello,target,lower-left,3wpdrrwn,validation - short,TRUE,Android,2023-03-04,1
2023-03-01T17:58:10.027Z,3336,1,eye,eye,target,upper-left,42kb9Tdb,validation - short,TRUE,Android,2023-03-01,1
2023-03-01T17:58:17.008Z,3544,2,carrot,carrot,target,lower-right,42kb9Tdb,validation - short,TRUE,Android,2023-03-01,1
2023-03-01T17:58:21.692Z,2884,3,ant,ant,target,upper-right,42kb9Tdb,validation - short,TRUE,Android,2023-03-01,1
2023-03-01T17:58:26.544Z,3275,4,elk,elk,target,upper-left,42kb9Tdb,validation - short,TRUE,Android,2023-03-01,1
2023-03-01T17:58:30.784Z,2666,5,choir,choir,target,upper-right,42kb9Tdb,validation - short,TRUE,Android,2023-03-01,1
2023-03-01T17:58:35.010Z,2889,6,ventilator,ventilator,target,lower-left,42kb9Tdb,validation - short,TRUE,Android,2023-03-01,1
2023-03-01T17:58:39.579Z,3264,7,arugula,dracula,dist2,upper-left,42kb9Tdb,validation - short,TRUE,Android,2023-03-01,0
2023-03-01T17:58:43.253Z,1889,8,giraffe,giraffe,target,upper-left,42kb9Tdb,validation - short,TRUE,Android,2023-03-01,1
2023-03-01T17:58:46.852Z,2309,9,palmtree,palmtree,target,lower-left,42kb9Tdb,validation - short,TRUE,Android,2023-03-01,1
2023-03-01T17:58:49.875Z,1919,10,pineapple,pineapple,target,lower-right,42kb9Tdb,validation - short,TRUE,Android,2023-03-01,1
2023-03-01T17:58:56.813Z,3591,11,ocean,ocean,target,upper-left,42kb9Tdb,validation - short,TRUE,Android,2023-03-01,1
2023-03-01T17:59:02.507Z,4387,12,gazelle,gazelle,target,lower-right,42kb9Tdb,validation - short,TRUE,Android,2023-03-01,1
2023-03-01T17:59:14.559Z,10605,13,chanterelle,chanterelle,target,upper-left,42kb9Tdb,validation - short,TRUE,Android,2023-03-01,1
2023-03-01T17:59:19.986Z,4029,14,ruin,ruin,target,lower-right,42kb9Tdb,validation - short,TRUE,Android,2023-03-01,1
2023-03-01T17:59:26.186Z,3209,15,labyrinth,labyrinth,target,lower-left,42kb9Tdb,validation - short,TRUE,Android,2023-03-01,1
2023-03-01T17:59:30.955Z,3342,16,orchid,orchid,target,lower-left,42kb9Tdb,validation - short,TRUE,Android,2023-03-01,1
2023-03-01T17:59:34.578Z,2216,17,zucchini,zucchini,target,upper-right,42kb9Tdb,validation - short,TRUE,Android,2023-03-01,1
2023-03-01T17:59:38.238Z,2443,18,kayak,kayak,target,upper-left,42kb9Tdb,validation - short,TRUE,Android,2023-03-01,1
2023-03-01T17:59:41.487Z,2145,19,lobster,lobster,target,upper-right,42kb9Tdb,validation - short,TRUE,Android,2023-03-01,1
2023-03-01T17:59:49.866Z,7161,20,carnation,violets,dist1,lower-right,42kb9Tdb,validation - short,TRUE,Android,2023-03-01,0
2023-03-01T17:59:56.339Z,3550,21,flounder,flounder,target,lower-right,42kb9Tdb,validation - short,TRUE,Android,2023-03-01,1
2023-03-01T18:00:03.001Z,5316,22,cello,harp,dist1,lower-right,42kb9Tdb,validation - short,TRUE,Android,2023-03-01,0
2023-03-13T16:38:19.676Z,9399,1,eye,eye,target,upper-left,479FefBH,validation - short,FALSE,Windows,2023-03-13,1
2023-03-13T16:38:36.251Z,6236,2,carrot,carrot,target,lower-right,479FefBH,validation - short,FALSE,Windows,2023-03-13,1
2023-03-13T16:38:48.509Z,6363,3,ant,ant,target,upper-right,479FefBH,validation - short,FALSE,Windows,2023-03-13,1
2023-03-13T16:39:39.498Z,44869,4,elk,elk,target,upper-left,479FefBH,validation - short,FALSE,Windows,2023-03-13,1
2023-03-13T16:40:02.961Z,19465,5,choir,orchestra,dist1,lower-right,479FefBH,validation - short,FALSE,Windows,2023-03-13,0
2023-03-13T16:40:14.748Z,4618,6,ventilator,ventilator,target,lower-left,479FefBH,validation - short,FALSE,Windows,2023-03-13,1
2023-03-13T16:40:39.555Z,20288,7,arugula,dracula,dist2,upper-left,479FefBH,validation - short,FALSE,Windows,2023-03-13,0
2023-03-13T16:40:52.414Z,6390,8,giraffe,giraffe,target,upper-left,479FefBH,validation - short,FALSE,Windows,2023-03-13,1
2023-03-13T16:41:00.410Z,4372,9,palmtree,palmtree,target,lower-left,479FefBH,validation - short,FALSE,Windows,2023-03-13,1
2023-03-13T16:41:07.747Z,4228,10,pineapple,pineapple,target,lower-right,479FefBH,validation - short,FALSE,Windows,2023-03-13,1
2023-03-13T16:41:22.909Z,8625,11,ocean,ocean,target,upper-left,479FefBH,validation - short,FALSE,Windows,2023-03-13,1
2023-03-13T16:41:36.356Z,7263,12,gazelle,gazelle,target,lower-right,479FefBH,validation - short,FALSE,Windows,2023-03-13,1
2023-03-13T16:41:47.064Z,7424,13,chanterelle,chanterelle,target,upper-left,479FefBH,validation - short,FALSE,Windows,2023-03-13,1
2023-03-13T16:42:10.152Z,17526,14,ruin,ruin,target,lower-right,479FefBH,validation - short,FALSE,Windows,2023-03-13,1
2023-03-13T16:42:20.078Z,4397,15,labyrinth,labyrinth,target,lower-left,479FefBH,validation - short,FALSE,Windows,2023-03-13,1
2023-03-13T16:42:29.081Z,5223,16,orchid,orchid,target,lower-left,479FefBH,validation - short,FALSE,Windows,2023-03-13,1
2023-03-13T16:42:42.319Z,4432,17,zucchini,zucchini,target,upper-right,479FefBH,validation - short,FALSE,Windows,2023-03-13,1
2023-03-13T16:43:03.508Z,15807,18,kayak,boomerang,dist3,lower-right,479FefBH,validation - short,FALSE,Windows,2023-03-13,0
2023-03-13T16:43:13.293Z,5235,19,lobster,lobster,target,upper-right,479FefBH,validation - short,FALSE,Windows,2023-03-13,1
2023-03-13T16:43:21.934Z,3879,20,carnation,violets,dist1,lower-right,479FefBH,validation - short,FALSE,Windows,2023-03-13,0
2023-03-13T16:43:31.055Z,6520,21,flounder,elderberry,dist2,upper-left,479FefBH,validation - short,FALSE,Windows,2023-03-13,0
2023-03-13T16:43:39.175Z,3829,22,cello,harp,dist1,lower-right,479FefBH,validation - short,FALSE,Windows,2023-03-13,0
2023-03-19T06:54:18.551Z,11089,1,eye,eye,target,upper-left,4bgeoaou,validation - short,TRUE,Mac OS X,2023-03-19,1
2023-03-19T06:54:26.498Z,5030,2,carrot,carrot,target,lower-right,4bgeoaou,validation - short,TRUE,Mac OS X,2023-03-19,1
2023-03-19T06:54:35.796Z,7963,3,ant,ant,target,upper-right,4bgeoaou,validation - short,TRUE,Mac OS X,2023-03-19,1
2023-03-19T06:54:59.935Z,21924,4,elk,elk,target,upper-left,4bgeoaou,validation - short,TRUE,Mac OS X,2023-03-19,1
2023-03-19T06:55:08.803Z,7444,5,choir,pipe,dist2,upper-left,4bgeoaou,validation - short,TRUE,Mac OS X,2023-03-19,0
2023-03-19T06:55:18.766Z,8013,6,ventilator,ventilator,target,lower-left,4bgeoaou,validation - short,TRUE,Mac OS X,2023-03-19,1
2023-03-19T06:55:34.800Z,15181,7,arugula,arugula,target,lower-right,4bgeoaou,validation - short,TRUE,Mac OS X,2023-03-19,1
2023-03-19T06:55:41.021Z,4311,8,giraffe,giraffe,target,upper-left,4bgeoaou,validation - short,TRUE,Mac OS X,2023-03-19,1
2023-03-19T06:55:45.737Z,3909,9,palmtree,palmtree,target,lower-left,4bgeoaou,validation - short,TRUE,Mac OS X,2023-03-19,1
2023-03-19T06:55:49.418Z,2527,10,pineapple,pineapple,target,lower-right,4bgeoaou,validation - short,TRUE,Mac OS X,2023-03-19,1
2023-03-19T06:55:58.336Z,7957,11,ocean,factory,dist3,upper-right,4bgeoaou,validation - short,TRUE,Mac OS X,2023-03-19,0
2023-03-19T06:56:09.983Z,9680,12,gazelle,gazelle,target,lower-right,4bgeoaou,validation - short,TRUE,Mac OS X,2023-03-19,1
2023-03-19T06:56:19.794Z,8229,13,chanterelle,chestnut,dist1,lower-right,4bgeoaou,validation - short,TRUE,Mac OS X,2023-03-19,0
2023-03-19T06:56:55.121Z,12779,14,ruin,railtracks,dist2,lower-left,4bgeoaou,validation - short,TRUE,Mac OS X,2023-03-19,0
2023-03-19T06:57:03.553Z,4701,15,labyrinth,whirlwind,dist2,lower-right,4bgeoaou,validation - short,TRUE,Mac OS X,2023-03-19,0
2023-03-19T06:57:16.732Z,8783,16,orchid,orchid,target,lower-left,4bgeoaou,validation - short,TRUE,Mac OS X,2023-03-19,1
2023-03-19T06:57:23.625Z,5699,17,zucchini,zucchini,target,upper-right,4bgeoaou,validation - short,TRUE,Mac OS X,2023-03-19,1
2023-03-19T06:57:38.456Z,13436,18,kayak,boomerang,dist3,lower-right,4bgeoaou,validation - short,TRUE,Mac OS X,2023-03-19,0
2023-03-19T06:57:44.672Z,4921,19,lobster,microscope,dist3,upper-left,4bgeoaou,validation - short,TRUE,Mac OS X,2023-03-19,0
2023-03-19T06:57:56.799Z,8152,20,carnation,compass,dist3,upper-left,4bgeoaou,validation - short,TRUE,Mac OS X,2023-03-19,0
2023-03-19T06:58:04.602Z,6084,21,flounder,flounder,target,lower-right,4bgeoaou,validation - short,TRUE,Mac OS X,2023-03-19,1
2023-03-19T06:58:14.679Z,7936,22,cello,harp,dist1,lower-right,4bgeoaou,validation - short,TRUE,Mac OS X,2023-03-19,0
2023-03-11T14:47:05.939Z,7161,1,eye,eye,target,upper-left,4caxx1Za,validation - short,FALSE,Windows,2023-03-11,1
2023-03-11T14:47:29.467Z,15759,2,carrot,carrot,target,lower-right,4caxx1Za,validation - short,FALSE,Windows,2023-03-11,1
2023-03-11T14:47:34.963Z,2738,3,ant,ant,target,upper-right,4caxx1Za,validation - short,FALSE,Windows,2023-03-11,1
2023-03-11T14:47:42.204Z,3280,4,elk,elk,target,upper-left,4caxx1Za,validation - short,FALSE,Windows,2023-03-11,1
2023-03-11T14:47:59.884Z,13911,5,choir,pipe,dist2,upper-left,4caxx1Za,validation - short,FALSE,Windows,2023-03-11,0
2023-03-11T14:48:06.147Z,3575,6,ventilator,ventilator,target,lower-left,4caxx1Za,validation - short,FALSE,Windows,2023-03-11,1
2023-03-11T14:48:44.443Z,36753,7,arugula,brusselsprouts,dist1,lower-left,4caxx1Za,validation - short,FALSE,Windows,2023-03-11,0
2023-03-11T14:48:50.091Z,3390,8,giraffe,giraffe,target,upper-left,4caxx1Za,validation - short,FALSE,Windows,2023-03-11,1
2023-03-11T14:48:55.779Z,2628,9,palmtree,palmtree,target,lower-left,4caxx1Za,validation - short,FALSE,Windows,2023-03-11,1
2023-03-11T14:49:00.027Z,2427,10,pineapple,pineapple,target,lower-right,4caxx1Za,validation - short,FALSE,Windows,2023-03-11,1
2023-03-11T14:49:06.867Z,5377,11,ocean,ocean,target,upper-left,4caxx1Za,validation - short,FALSE,Windows,2023-03-11,1
2023-03-11T14:49:15.987Z,6671,12,gazelle,gazelle,target,lower-right,4caxx1Za,validation - short,FALSE,Windows,2023-03-11,1
2023-03-11T14:49:26.076Z,7481,13,chanterelle,chanterelle,target,upper-left,4caxx1Za,validation - short,FALSE,Windows,2023-03-11,1
2023-03-11T14:49:46.772Z,18108,14,ruin,ruin,target,lower-right,4caxx1Za,validation - short,FALSE,Windows,2023-03-11,1
2023-03-11T14:49:51.852Z,2871,15,labyrinth,labyrinth,target,lower-left,4caxx1Za,validation - short,FALSE,Windows,2023-03-11,1
2023-03-11T14:50:20.092Z,26764,16,orchid,orchid,target,lower-left,4caxx1Za,validation - short,FALSE,Windows,2023-03-11,1
2023-03-11T14:50:26.980Z,4401,17,zucchini,zucchini,target,upper-right,4caxx1Za,validation - short,FALSE,Windows,2023-03-11,1
2023-03-11T14:50:33.420Z,4510,18,kayak,boomerang,dist3,lower-right,4caxx1Za,validation - short,FALSE,Windows,2023-03-11,0
2023-03-11T14:50:42.931Z,7439,19,lobster,lobster,target,upper-right,4caxx1Za,validation - short,FALSE,Windows,2023-03-11,1
2023-03-11T14:50:56.091Z,11301,20,carnation,violets,dist1,lower-right,4caxx1Za,validation - short,FALSE,Windows,2023-03-11,0
2023-03-11T14:51:05.243Z,5750,21,flounder,flounder,target,lower-right,4caxx1Za,validation - short,FALSE,Windows,2023-03-11,1
2023-03-11T14:51:11.619Z,4181,22,cello,cello,target,lower-left,4caxx1Za,validation - short,FALSE,Windows,2023-03-11,1
2023-03-05T17:07:38.677Z,12073,1,eye,eye,target,upper-left,4cvVFzY5,validation - short,TRUE,Android,2023-03-05,1
2023-03-05T17:07:53.982Z,9032,2,carrot,carrot,target,lower-right,4cvVFzY5,validation - short,TRUE,Android,2023-03-05,1
2023-03-05T17:08:00.975Z,3552,3,ant,ant,target,upper-right,4cvVFzY5,validation - short,TRUE,Android,2023-03-05,1
2023-03-05T17:08:47.874Z,41967,4,elk,skeleton,dist3,upper-right,4cvVFzY5,validation - short,TRUE,Android,2023-03-05,0
2023-03-05T17:09:06.827Z,13136,5,choir,pipe,dist2,upper-left,4cvVFzY5,validation - short,TRUE,Android,2023-03-05,0
2023-03-05T17:09:16.552Z,5303,6,ventilator,ventilator,target,lower-left,4cvVFzY5,validation - short,TRUE,Android,2023-03-05,1
2023-03-05T17:09:28.424Z,7857,7,arugula,arugula,target,lower-right,4cvVFzY5,validation - short,TRUE,Android,2023-03-05,1
2023-03-05T17:09:37.425Z,2264,8,giraffe,giraffe,target,upper-left,4cvVFzY5,validation - short,TRUE,Android,2023-03-05,1
2023-03-05T17:09:45.703Z,4868,9,palmtree,drinkingstraws,dist2,lower-right,4cvVFzY5,validation - short,TRUE,Android,2023-03-05,0
2023-03-05T17:09:55.099Z,5807,10,pineapple,pineapple,target,lower-right,4cvVFzY5,validation - short,TRUE,Android,2023-03-05,1
2023-03-05T17:10:02.032Z,3902,11,ocean,pelican,dist2,lower-right,4cvVFzY5,validation - short,TRUE,Android,2023-03-05,0
